 B4C 50.nm on Si at 6250.eV, P=0.
 Angle (deg), Reflectivity, Transmission into substrate
   0.000000  1.00000  0.000000
   2.004008E-03  0.999975  6.155750E-11
   4.008016E-03  0.999951  1.232649E-10
   6.012024E-03  0.999926  1.852739E-10
   8.016032E-03  0.999901  2.477381E-10
   1.002004E-02  0.999877  3.108125E-10
   1.202405E-02  0.999852  3.746553E-10
   1.402806E-02  0.999827  4.394268E-10
   1.603206E-02  0.999803  5.052937E-10
   1.803607E-02  0.999778  5.724259E-10
   2.004008E-02  0.999753  6.409990E-10
   2.204409E-02  0.999728  7.111959E-10
   2.404810E-02  0.999703  7.832049E-10
   2.605210E-02  0.999678  8.572250E-10
   2.805611E-02  0.999653  9.334625E-10
   3.006012E-02  0.999628  1.012136E-09
   3.206413E-02  0.999603  1.093473E-09
   3.406814E-02  0.999578  1.177715E-09
   3.607215E-02  0.999553  1.265117E-09
   3.807615E-02  0.999528  1.355948E-09
   4.008016E-02  0.999502  1.450496E-09
   4.208417E-02  0.999477  1.549066E-09
   4.408818E-02  0.999451  1.651980E-09
   4.609219E-02  0.999426  1.759587E-09
   4.809619E-02  0.999400  1.872259E-09
   5.010020E-02  0.999374  1.990389E-09
   5.210421E-02  0.999349  2.114402E-09
   5.410822E-02  0.999323  2.244759E-09
   5.611223E-02  0.999297  2.381950E-09
   5.811623E-02  0.999270  2.526495E-09
   6.012024E-02  0.999244  2.678966E-09
   6.212425E-02  0.999218  2.839980E-09
   6.412826E-02  0.999191  3.010194E-09
   6.613226E-02  0.999165  3.190328E-09
   6.813627E-02  0.999138  3.381145E-09
   7.014028E-02  0.999111  3.583492E-09
   7.214429E-02  0.999084  3.798271E-09
   7.414830E-02  0.999057  4.026477E-09
   7.615230E-02  0.999029  4.269162E-09
   7.815631E-02  0.999002  4.527494E-09
   8.016032E-02  0.998974  4.802749E-09
   8.216433E-02  0.998946  5.096286E-09
   8.416834E-02  0.998918  5.409614E-09
   8.617234E-02  0.998890  5.744366E-09
   8.817635E-02  0.998861  6.102339E-09
   9.018036E-02  0.998833  6.485458E-09
   9.218437E-02  0.998804  6.895880E-09
   9.418838E-02  0.998775  7.335939E-09
   9.619239E-02  0.998746  7.808197E-09
   9.819639E-02  0.998716  8.315441E-09
   0.100200  0.998686  8.860791E-09
   0.102204  0.998656  9.447613E-09
   0.104208  0.998626  1.007962E-08
   0.106212  0.998596  1.076095E-08
   0.108216  0.998565  1.149610E-08
   0.110220  0.998534  1.229005E-08
   0.112224  0.998502  1.314836E-08
   0.114228  0.998471  1.407706E-08
   0.116232  0.998439  1.508292E-08
   0.118236  0.998406  1.617335E-08
   0.120240  0.998374  1.735671E-08
   0.122244  0.998341  1.864215E-08
   0.124248  0.998308  2.003988E-08
   0.126253  0.998274  2.156126E-08
   0.128257  0.998240  2.321894E-08
   0.130261  0.998205  2.502708E-08
   0.132265  0.998170  2.700134E-08
   0.134269  0.998135  2.915943E-08
   0.136273  0.998099  3.152106E-08
   0.138277  0.998063  3.410829E-08
   0.140281  0.998027  3.694591E-08
   0.142285  0.997989  4.006184E-08
   0.144289  0.997952  4.348747E-08
   0.146293  0.997913  4.725804E-08
   0.148297  0.997875  5.141339E-08
   0.150301  0.997835  5.599867E-08
   0.152305  0.997796  6.106470E-08
   0.154309  0.997755  6.666946E-08
   0.156313  0.997714  7.287824E-08
   0.158317  0.997672  7.976580E-08
   0.160321  0.997630  8.741669E-08
   0.162325  0.997586  9.592806E-08
   0.164329  0.997542  1.054101E-07
   0.166333  0.997498  1.159895E-07
   0.168337  0.997452  1.278113E-07
   0.170341  0.997405  1.410422E-07
   0.172345  0.997358  1.558733E-07
   0.174349  0.997310  1.725265E-07
   0.176353  0.997261  1.912561E-07
   0.178357  0.997211  2.123576E-07
   0.180361  0.997159  2.361745E-07
   0.182365  0.997107  2.631038E-07
   0.184369  0.997053  2.936104E-07
   0.186373  0.996998  3.282356E-07
   0.188377  0.996942  3.676133E-07
   0.190381  0.996885  4.124868E-07
   0.192385  0.996826  4.637305E-07
   0.194389  0.996766  5.223755E-07
   0.196393  0.996704  5.896405E-07
   0.198397  0.996640  6.669713E-07
   0.200401  0.996574  7.560828E-07
   0.202405  0.996507  8.590255E-07
   0.204409  0.996438  9.782467E-07
   0.206413  0.996367  1.116685E-06
   0.208417  0.996293  1.277877E-06
   0.210421  0.996217  1.466096E-06
   0.212425  0.996139  1.686517E-06
   0.214429  0.996058  1.945437E-06
   0.216433  0.995974  2.250556E-06
   0.218437  0.995886  2.611305E-06
   0.220441  0.995796  3.039301E-06
   0.222445  0.995702  3.548920E-06
   0.224449  0.995604  4.158028E-06
   0.226453  0.995501  4.888908E-06
   0.228457  0.995395  5.769607E-06
   0.230461  0.995283  6.835419E-06
   0.232465  0.995165  8.131221E-06
   0.234469  0.995042  9.714272E-06
   0.236473  0.994912  1.165823E-05
   0.238477  0.994775  1.405837E-05
   0.240481  0.994629  1.703891E-05
   0.242485  0.994475  2.076296E-05
   0.244489  0.994310  2.544670E-05
   0.246493  0.994134  3.137888E-05
   0.248497  0.993944  3.894946E-05
   0.250501  0.993740  4.868994E-05
   0.252505  0.993517  6.133343E-05
   0.254509  0.993273  7.790350E-05
   0.256513  0.993005  9.984873E-05
   0.258517  0.992706  1.292496E-04
   0.260521  0.992370  1.691462E-04
   0.262525  0.991988  2.240562E-04
   0.264529  0.991547  3.008418E-04
   0.266533  0.991026  4.101695E-04
   0.268537  0.990400  5.690469E-04
   0.270541  0.989626  8.054610E-04
   0.272545  0.988635  1.167075E-03
   0.274549  0.987315  1.738461E-03
   0.276553  0.985467  2.677109E-03
   0.278557  0.982716  4.292972E-03
   0.280561  0.978308  7.236743E-03
   0.282565  0.970611  1.296990E-02
   0.284569  0.955889  2.495203E-02
   0.286573  0.925699  5.123315E-02
   0.288577  0.864611  0.106981
   0.290581  0.758119  0.207285
   0.292585  0.613969  0.346144
   0.294589  0.467193  0.490260
   0.296593  0.352599  0.605092
   0.298597  0.280712  0.679085
   0.300601  0.242709  0.719878
   0.302605  0.225289  0.740043
   0.304609  0.218216  0.749514
   0.306613  0.215297  0.754421
   0.308617  0.213228  0.758099
   0.310621  0.210427  0.762193
   0.312625  0.206253  0.767408
   0.314629  0.200558  0.773945
   0.316633  0.193448  0.781747
   0.318637  0.185149  0.790623
   0.320641  0.175938  0.800324
   0.322645  0.166108  0.810583
   0.324649  0.155939  0.821134
   0.326653  0.145695  0.831729
   0.328657  0.135607  0.842148
   0.330661  0.125872  0.852200
   0.332665  0.116653  0.861730
   0.334669  0.108070  0.870619
   0.336673  0.100211  0.878784
   0.338677  9.312698E-02  0.886173
   0.340681  8.683638E-02  0.892770
   0.342685  8.133121E-02  0.898581
   0.344689  7.658003E-02  0.903637
   0.346693  7.253313E-02  0.907986
   0.348697  6.912755E-02  0.911692
   0.350701  6.629141E-02  0.914823
   0.352705  6.394811E-02  0.917456
   0.354709  6.201972E-02  0.919667
   0.356713  6.042993E-02  0.921531
   0.358717  5.910634E-02  0.923121
   0.360721  5.798211E-02  0.924503
   0.362725  5.699714E-02  0.925736
   0.364729  5.609880E-02  0.926873
   0.366733  5.524208E-02  0.927958
   0.368737  5.438980E-02  0.929029
   0.370741  5.351235E-02  0.930116
   0.372745  5.258711E-02  0.931242
   0.374750  5.159804E-02  0.932422
   0.376754  5.053517E-02  0.933669
   0.378758  4.939367E-02  0.934986
   0.380762  4.817331E-02  0.936375
   0.382766  4.687788E-02  0.937832
   0.384770  4.551426E-02  0.939352
   0.386774  4.409192E-02  0.940924
   0.388778  4.262234E-02  0.942539
   0.390782  4.111819E-02  0.944184
   0.392786  3.959326E-02  0.945846
   0.394790  3.806141E-02  0.947511
   0.396794  3.653654E-02  0.949166
   0.398798  3.503209E-02  0.950798
   0.400802  3.356073E-02  0.952393
   0.402806  3.213392E-02  0.953943
   0.404810  3.076208E-02  0.955435
   0.406814  2.945400E-02  0.956861
   0.408818  2.821696E-02  0.958215
   0.410822  2.705677E-02  0.959491
   0.412826  2.597738E-02  0.960684
   0.414830  2.498130E-02  0.961792
   0.416834  2.406945E-02  0.962815
   0.418838  2.324127E-02  0.963753
   0.420842  2.249483E-02  0.964608
   0.422846  2.182702E-02  0.965383
   0.424850  2.123367E-02  0.966082
   0.426854  2.070977E-02  0.966709
   0.428858  2.024952E-02  0.967272
   0.430862  1.984657E-02  0.967776
   0.432866  1.949424E-02  0.968228
   0.434870  1.918558E-02  0.968634
   0.436874  1.891358E-02  0.969003
   0.438878  1.867135E-02  0.969340
   0.440882  1.845212E-02  0.969652
   0.442886  1.824946E-02  0.969945
   0.444890  1.805738E-02  0.970226
   0.446894  1.787034E-02  0.970501
   0.448898  1.768335E-02  0.970774
   0.450902  1.749204E-02  0.971049
   0.452906  1.729265E-02  0.971331
   0.454910  1.708206E-02  0.971622
   0.456914  1.685784E-02  0.971925
   0.458918  1.661816E-02  0.972242
   0.460922  1.636185E-02  0.972573
   0.462926  1.608833E-02  0.972921
   0.464930  1.579756E-02  0.973285
   0.466934  1.549004E-02  0.973663
   0.468938  1.516671E-02  0.974057
   0.470942  1.482896E-02  0.974463
   0.472946  1.447848E-02  0.974881
   0.474950  1.411732E-02  0.975309
   0.476954  1.374767E-02  0.975744
   0.478958  1.337200E-02  0.976183
   0.480962  1.299279E-02  0.976626
   0.482966  1.261266E-02  0.977069
   0.484970  1.223415E-02  0.977509
   0.486974  1.185982E-02  0.977944
   0.488978  1.149208E-02  0.978372
   0.490982  1.113324E-02  0.978790
   0.492986  1.078538E-02  0.979196
   0.494990  1.045042E-02  0.979589
   0.496994  1.013005E-02  0.979967
   0.498998  9.825641E-03  0.980328
   0.501002  9.538387E-03  0.980672
   0.503006  9.269127E-03  0.980996
   0.505010  9.018466E-03  0.981302
   0.507014  8.786692E-03  0.981588
   0.509018  8.573879E-03  0.981855
   0.511022  8.379789E-03  0.982103
   0.513026  8.203967E-03  0.982331
   0.515030  8.045723E-03  0.982542
   0.517034  7.904162E-03  0.982735
   0.519038  7.778219E-03  0.982913
   0.521042  7.666664E-03  0.983075
   0.523046  7.568157E-03  0.983224
   0.525050  7.481233E-03  0.983360
   0.527054  7.404383E-03  0.983486
   0.529058  7.336044E-03  0.983603
   0.531062  7.274631E-03  0.983712
   0.533066  7.218588E-03  0.983816
   0.535070  7.166362E-03  0.983915
   0.537074  7.116501E-03  0.984011
   0.539078  7.067595E-03  0.984105
   0.541082  7.018342E-03  0.984199
   0.543086  6.967543E-03  0.984295
   0.545090  6.914147E-03  0.984392
   0.547094  6.857204E-03  0.984492
   0.549098  6.795934E-03  0.984596
   0.551102  6.729700E-03  0.984705
   0.553106  6.657996E-03  0.984818
   0.555110  6.580490E-03  0.984937
   0.557114  6.496979E-03  0.985061
   0.559118  6.407426E-03  0.985190
   0.561122  6.311901E-03  0.985326
   0.563126  6.210621E-03  0.985466
   0.565130  6.103930E-03  0.985611
   0.567134  5.992251E-03  0.985761
   0.569138  5.876114E-03  0.985915
   0.571142  5.756137E-03  0.986072
   0.573146  5.633005E-03  0.986233
   0.575150  5.507457E-03  0.986395
   0.577154  5.380264E-03  0.986558
   0.579158  5.252195E-03  0.986722
   0.581162  5.124086E-03  0.986886
   0.583166  4.996712E-03  0.987048
   0.585170  4.870885E-03  0.987209
   0.587174  4.747309E-03  0.987367
   0.589178  4.626756E-03  0.987522
   0.591182  4.509836E-03  0.987672
   0.593186  4.397176E-03  0.987819
   0.595190  4.289303E-03  0.987960
   0.597194  4.186674E-03  0.988096
   0.599198  4.089660E-03  0.988226
   0.601202  3.998586E-03  0.988349
   0.603206  3.913647E-03  0.988467
   0.605210  3.834979E-03  0.988577
   0.607214  3.762634E-03  0.988682
   0.609218  3.696573E-03  0.988779
   0.611222  3.636679E-03  0.988871
   0.613226  3.582764E-03  0.988955
   0.615230  3.534585E-03  0.989035
   0.617234  3.491812E-03  0.989108
   0.619238  3.454071E-03  0.989176
   0.621242  3.420943E-03  0.989239
   0.623246  3.391958E-03  0.989298
   0.625251  3.366627E-03  0.989353
   0.627255  3.344427E-03  0.989404
   0.629259  3.324817E-03  0.989453
   0.631263  3.307261E-03  0.989499
   0.633267  3.291219E-03  0.989544
   0.635271  3.276150E-03  0.989587
   0.637275  3.261547E-03  0.989630
   0.639279  3.246906E-03  0.989672
   0.641283  3.231776E-03  0.989715
   0.643287  3.215716E-03  0.989758
   0.645291  3.198344E-03  0.989803
   0.647295  3.179311E-03  0.989849
   0.649299  3.158329E-03  0.989896
   0.651303  3.135142E-03  0.989945
   0.653307  3.109563E-03  0.989997
   0.655311  3.081443E-03  0.990051
   0.657315  3.050694E-03  0.990107
   0.659319  3.017284E-03  0.990166
   0.661323  2.981222E-03  0.990227
   0.663327  2.942570E-03  0.990291
   0.665331  2.901437E-03  0.990356
   0.667335  2.857980E-03  0.990424
   0.669339  2.812379E-03  0.990494
   0.671343  2.764861E-03  0.990566
   0.673347  2.715692E-03  0.990639
   0.675351  2.665131E-03  0.990713
   0.677355  2.613499E-03  0.990788
   0.679359  2.561096E-03  0.990864
   0.681363  2.508253E-03  0.990939
   0.683367  2.455286E-03  0.991015
   0.685371  2.402546E-03  0.991091
   0.687375  2.350335E-03  0.991166
   0.689379  2.298989E-03  0.991240
   0.691383  2.248780E-03  0.991312
   0.693387  2.200003E-03  0.991383
   0.695391  2.152913E-03  0.991452
   0.697395  2.107738E-03  0.991519
   0.699399  2.064688E-03  0.991584
   0.701403  2.023931E-03  0.991646
   0.703407  1.985613E-03  0.991706
   0.705411  1.949831E-03  0.991763
   0.707415  1.916675E-03  0.991817
   0.709419  1.886175E-03  0.991869
   0.711423  1.858341E-03  0.991918
   0.713427  1.833145E-03  0.991964
   0.715431  1.810526E-03  0.992007
   0.717435  1.790398E-03  0.992047
   0.719439  1.772644E-03  0.992086
   0.721443  1.757123E-03  0.992121
   0.723447  1.743663E-03  0.992155
   0.725451  1.732086E-03  0.992186
   0.727455  1.722181E-03  0.992216
   0.729459  1.713741E-03  0.992244
   0.731463  1.706535E-03  0.992271
   0.733467  1.700325E-03  0.992296
   0.735471  1.694884E-03  0.992321
   0.737475  1.689967E-03  0.992345
   0.739479  1.685346E-03  0.992369
   0.741483  1.680789E-03  0.992392
   0.743487  1.676082E-03  0.992416
   0.745491  1.671016E-03  0.992439
   0.747495  1.665402E-03  0.992463
   0.749499  1.659065E-03  0.992488
   0.751503  1.651849E-03  0.992513
   0.753507  1.643621E-03  0.992540
   0.755511  1.634265E-03  0.992567
   0.757515  1.623692E-03  0.992595
   0.759519  1.611833E-03  0.992625
   0.761523  1.598644E-03  0.992656
   0.763527  1.584103E-03  0.992687
   0.765531  1.568216E-03  0.992720
   0.767535  1.550998E-03  0.992755
   0.769539  1.532508E-03  0.992791
   0.771543  1.512804E-03  0.992827
   0.773547  1.491968E-03  0.992865
   0.775551  1.470110E-03  0.992903
   0.777555  1.447336E-03  0.992943
   0.779559  1.423784E-03  0.992983
   0.781563  1.399587E-03  0.993024
   0.783567  1.374902E-03  0.993064
   0.785571  1.349876E-03  0.993106
   0.787575  1.324671E-03  0.993147
   0.789579  1.299440E-03  0.993188
   0.791583  1.274352E-03  0.993229
   0.793587  1.249554E-03  0.993270
   0.795591  1.225202E-03  0.993310
   0.797595  1.201439E-03  0.993349
   0.799599  1.178397E-03  0.993388
   0.801603  1.156198E-03  0.993425
   0.803607  1.134957E-03  0.993462
   0.805611  1.114771E-03  0.993498
   0.807615  1.095719E-03  0.993532
   0.809619  1.077874E-03  0.993565
   0.811623  1.061288E-03  0.993596
   0.813627  1.045994E-03  0.993627
   0.815631  1.032006E-03  0.993656
   0.817635  1.019336E-03  0.993683
   0.819639  1.007963E-03  0.993709
   0.821643  9.978598E-04  0.993734
   0.823647  9.889848E-04  0.993757
   0.825651  9.812777E-04  0.993779
   0.827655  9.746678E-04  0.993801
   0.829659  9.690750E-04  0.993820
   0.831663  9.644036E-04  0.993839
   0.833667  9.605542E-04  0.993857
   0.835671  9.574182E-04  0.993874
   0.837675  9.548839E-04  0.993891
   0.839679  9.528307E-04  0.993907
   0.841683  9.511402E-04  0.993922
   0.843687  9.496906E-04  0.993938
   0.845691  9.483646E-04  0.993953
   0.847695  9.470436E-04  0.993968
   0.849699  9.456177E-04  0.993983
   0.851703  9.439799E-04  0.993998
   0.853707  9.420251E-04  0.994013
   0.855711  9.396667E-04  0.994029
   0.857715  9.368218E-04  0.994045
   0.859719  9.334140E-04  0.994061
   0.861723  9.293850E-04  0.994078
   0.863727  9.246818E-04  0.994096
   0.865731  9.192653E-04  0.994114
   0.867736  9.131106E-04  0.994133
   0.869739  9.062031E-04  0.994153
   0.871744  8.985360E-04  0.994173
   0.873748  8.901202E-04  0.994194
   0.875751  8.809780E-04  0.994216
   0.877756  8.711386E-04  0.994238
   0.879760  8.606435E-04  0.994261
   0.881764  8.495432E-04  0.994284
   0.883768  8.378943E-04  0.994308
   0.885772  8.257650E-04  0.994333
   0.887776  8.132306E-04  0.994357
   0.889780  8.003637E-04  0.994382
   0.891784  7.872514E-04  0.994407
   0.893788  7.739747E-04  0.994432
   0.895792  7.606242E-04  0.994458
   0.897796  7.472835E-04  0.994482
   0.899800  7.340399E-04  0.994508
   0.901804  7.209744E-04  0.994533
   0.903808  7.081725E-04  0.994557
   0.905812  6.957084E-04  0.994581
   0.907816  6.836564E-04  0.994605
   0.909820  6.720821E-04  0.994628
   0.911824  6.610419E-04  0.994650
   0.913828  6.505894E-04  0.994672
   0.915832  6.407703E-04  0.994693
   0.917836  6.316178E-04  0.994713
   0.919840  6.231607E-04  0.994733
   0.921844  6.154150E-04  0.994752
   0.923848  6.083894E-04  0.994770
   0.925852  6.020852E-04  0.994787
   0.927856  5.964944E-04  0.994804
   0.929860  5.915989E-04  0.994820
   0.931864  5.873726E-04  0.994835
   0.933868  5.837835E-04  0.994849
   0.935872  5.807915E-04  0.994863
   0.937876  5.783497E-04  0.994876
   0.939880  5.764064E-04  0.994889
   0.941884  5.749057E-04  0.994901
   0.943888  5.737871E-04  0.994913
   0.945892  5.729829E-04  0.994924
   0.947896  5.724344E-04  0.994935
   0.949900  5.720664E-04  0.994946
   0.951904  5.718138E-04  0.994957
   0.953908  5.716124E-04  0.994967
   0.955912  5.713931E-04  0.994978
   0.957916  5.710926E-04  0.994988
   0.959920  5.706503E-04  0.994999
   0.961924  5.700096E-04  0.995009
   0.963928  5.691179E-04  0.995020
   0.965932  5.679280E-04  0.995032
   0.967936  5.663978E-04  0.995043
   0.969940  5.644918E-04  0.995055
   0.971944  5.621804E-04  0.995067
   0.973948  5.594408E-04  0.995079
   0.975952  5.562571E-04  0.995093
   0.977956  5.526193E-04  0.995106
   0.979960  5.485240E-04  0.995120
   0.981964  5.439770E-04  0.995134
   0.983968  5.389892E-04  0.995148
   0.985972  5.335783E-04  0.995163
   0.987976  5.277673E-04  0.995179
   0.989980  5.215831E-04  0.995194
   0.991984  5.150586E-04  0.995210
   0.993988  5.082372E-04  0.995226
   0.995992  5.011538E-04  0.995242
   0.997996  4.938580E-04  0.995259
   1.00000  4.863947E-04  0.995276
