 B4C 60.nm on Si at 8500.eV, P=0.
 Angle (deg), Reflectivity, Transmission into substrate
   0.000000  1.00000  0.000000
   2.004008E-03  0.999982  1.972724E-12
   4.008016E-03  0.999965  3.956100E-12
   6.012024E-03  0.999947  5.960885E-12
   8.016032E-03  0.999929  7.998083E-12
   1.002004E-02  0.999912  1.007898E-11
   1.202405E-02  0.999894  1.221528E-11
   1.402806E-02  0.999876  1.441924E-11
   1.603206E-02  0.999858  1.670377E-11
   1.803607E-02  0.999841  1.908257E-11
   2.004008E-02  0.999823  2.157027E-11
   2.204409E-02  0.999805  2.418263E-11
   2.404810E-02  0.999787  2.693659E-11
   2.605210E-02  0.999769  2.985072E-11
   2.805611E-02  0.999751  3.294506E-11
   3.006012E-02  0.999733  3.624177E-11
   3.206413E-02  0.999714  3.976510E-11
   3.406814E-02  0.999696  4.354173E-11
   3.607215E-02  0.999678  4.760145E-11
   3.807615E-02  0.999659  5.197708E-11
   4.008016E-02  0.999641  5.670526E-11
   4.208417E-02  0.999622  6.182669E-11
   4.408818E-02  0.999603  6.738703E-11
   4.609219E-02  0.999584  7.343746E-11
   4.809619E-02  0.999565  8.003538E-11
   5.010020E-02  0.999546  8.724525E-11
   5.210421E-02  0.999527  9.514015E-11
   5.410822E-02  0.999507  1.038021E-10
   5.611223E-02  0.999488  1.133242E-10
   5.811623E-02  0.999468  1.238118E-10
   6.012024E-02  0.999448  1.353853E-10
   6.212425E-02  0.999428  1.481801E-10
   6.412826E-02  0.999408  1.623525E-10
   6.613226E-02  0.999387  1.780798E-10
   6.813627E-02  0.999367  1.955645E-10
   7.014028E-02  0.999346  2.150405E-10
   7.214429E-02  0.999324  2.367747E-10
   7.414830E-02  0.999303  2.610749E-10
   7.615230E-02  0.999282  2.882971E-10
   7.815631E-02  0.999260  3.188512E-10
   8.016032E-02  0.999238  3.532125E-10
   8.216433E-02  0.999215  3.919320E-10
   8.416834E-02  0.999193  4.356514E-10
   8.617234E-02  0.999170  4.851188E-10
   8.817635E-02  0.999146  5.412066E-10
   9.018036E-02  0.999123  6.049384E-10
   9.218437E-02  0.999099  6.775115E-10
   9.418838E-02  0.999074  7.603401E-10
   9.619239E-02  0.999049  8.550860E-10
   9.819639E-02  0.999024  9.637192E-10
   0.100200  0.998999  1.088569E-09
   0.102204  0.998973  1.232414E-09
   0.104208  0.998946  1.398552E-09
   0.106212  0.998919  1.590936E-09
   0.108216  0.998892  1.814294E-09
   0.110220  0.998864  2.074324E-09
   0.112224  0.998835  2.377879E-09
   0.114228  0.998806  2.733266E-09
   0.116232  0.998776  3.150554E-09
   0.118236  0.998746  3.642006E-09
   0.120240  0.998714  4.222617E-09
   0.122244  0.998682  4.910770E-09
   0.124248  0.998650  5.729075E-09
   0.126253  0.998616  6.705489E-09
   0.128257  0.998581  7.874697E-09
   0.130261  0.998546  9.279871E-09
   0.132265  0.998509  1.097503E-08
   0.134269  0.998472  1.302805E-08
   0.136273  0.998433  1.552461E-08
   0.138277  0.998393  1.857333E-08
   0.140281  0.998352  2.231265E-08
   0.142285  0.998309  2.692002E-08
   0.144289  0.998265  3.262392E-08
   0.146293  0.998219  3.972026E-08
   0.148297  0.998172  4.859490E-08
   0.150301  0.998122  5.975360E-08
   0.152305  0.998071  7.386367E-08
   0.154309  0.998017  9.181248E-08
   0.156313  0.997961  1.147873E-07
   0.158317  0.997902  1.443898E-07
   0.160321  0.997841  1.827971E-07
   0.162325  0.997776  2.329965E-07
   0.164329  0.997707  2.991217E-07
   0.166333  0.997635  3.869498E-07
   0.168337  0.997558  5.046408E-07
   0.170341  0.997477  6.638449E-07
   0.172345  0.997389  8.814030E-07
   0.174349  0.997296  1.181978E-06
   0.176353  0.997196  1.602189E-06
   0.178357  0.997087  2.197276E-06
   0.180361  0.996969  3.051949E-06
   0.182365  0.996840  4.298602E-06
   0.184369  0.996697  6.148446E-06
   0.186373  0.996538  8.946291E-06
   0.188377  0.996360  1.327004E-05
   0.190381  0.996156  2.011742E-05
   0.192385  0.995921  3.127110E-05
   0.194389  0.995642  5.004678E-05
   0.196393  0.995302  8.291311E-05
   0.198397  0.994872  1.432420E-04
   0.200401  0.994296  2.607362E-04
   0.202405  0.993458  5.077774E-04
   0.204409  0.992081  1.083896E-03
   0.206413  0.989349  2.643172E-03
   0.208417  0.982109  7.945645E-03
   0.210421  0.953436  3.284793E-02
   0.212425  0.832266  0.147161
   0.214429  0.598712  0.374817
   0.216433  0.404174  0.568677
   0.218437  0.313177  0.662063
   0.220441  0.281002  0.696888
   0.222445  0.267602  0.712331
   0.224449  0.256415  0.724953
   0.226453  0.242620  0.739746
   0.228457  0.225756  0.757320
   0.230461  0.206806  0.776806
   0.232465  0.187105  0.796942
   0.234469  0.167910  0.816520
   0.236473  0.150216  0.834576
   0.238477  0.134680  0.850468
   0.240481  0.121615  0.863890
   0.242485  0.111033  0.874831
   0.244489  0.102719  0.883502
   0.246493  9.631456E-02  0.890256
   0.248497  9.139719E-02  0.895512
   0.250501  8.754139E-02  0.899690
   0.252505  8.436309E-02  0.903172
   0.254509  8.154444E-02  0.906275
   0.256513  7.884396E-02  0.909240
   0.258517  7.609618E-02  0.912232
   0.260521  7.320427E-02  0.915350
   0.262525  7.012974E-02  0.918634
   0.264529  6.687937E-02  0.922080
   0.266533  6.349315E-02  0.925649
   0.268537  6.003291E-02  0.929282
   0.270541  5.657096E-02  0.932908
   0.272545  5.318223E-02  0.936454
   0.274549  4.993643E-02  0.939852
   0.276553  4.689290E-02  0.943043
   0.278557  4.409743E-02  0.945983
   0.280561  4.157979E-02  0.948641
   0.282565  3.935360E-02  0.951005
   0.284569  3.741756E-02  0.953076
   0.286573  3.575681E-02  0.954869
   0.288577  3.434572E-02  0.956409
   0.290581  3.315081E-02  0.957731
   0.292585  3.213380E-02  0.958870
   0.294589  3.125434E-02  0.959869
   0.296593  3.047276E-02  0.960767
   0.298597  2.975215E-02  0.961599
   0.300601  2.905998E-02  0.962400
   0.302605  2.836943E-02  0.963195
   0.304609  2.765986E-02  0.964005
   0.306613  2.691715E-02  0.964845
   0.308617  2.613351E-02  0.965722
   0.310621  2.530697E-02  0.966639
   0.312625  2.444063E-02  0.967593
   0.314629  2.354186E-02  0.968576
   0.316633  2.262115E-02  0.969579
   0.318637  2.169117E-02  0.970589
   0.320641  2.076566E-02  0.971593
   0.322645  1.985844E-02  0.972576
   0.324649  1.898277E-02  0.973526
   0.326653  1.815031E-02  0.974432
   0.328657  1.737078E-02  0.975283
   0.330661  1.665146E-02  0.976073
   0.332665  1.599710E-02  0.976797
   0.334669  1.540967E-02  0.977452
   0.336673  1.488856E-02  0.978040
   0.338677  1.443082E-02  0.978564
   0.340681  1.403142E-02  0.979028
   0.342685  1.368367E-02  0.979439
   0.344689  1.337967E-02  0.979805
   0.346693  1.311080E-02  0.980135
   0.348697  1.286810E-02  0.980438
   0.350701  1.264282E-02  0.980722
   0.352705  1.242668E-02  0.980996
   0.354709  1.221232E-02  0.981266
   0.356713  1.199343E-02  0.981540
   0.358717  1.176505E-02  0.981822
   0.360721  1.152358E-02  0.982116
   0.362725  1.126689E-02  0.982424
   0.364729  1.099422E-02  0.982747
   0.366733  1.070611E-02  0.983084
   0.368737  1.040427E-02  0.983434
   0.370741  1.009138E-02  0.983794
   0.372745  9.770872E-03  0.984161
   0.374750  9.446670E-03  0.984531
   0.376754  9.123012E-03  0.984899
   0.378758  8.804239E-03  0.985262
   0.380762  8.494427E-03  0.985615
   0.382766  8.197406E-03  0.985955
   0.384770  7.916455E-03  0.986278
   0.386774  7.654202E-03  0.986581
   0.388778  7.412571E-03  0.986864
   0.390782  7.192729E-03  0.987124
   0.392786  6.995051E-03  0.987362
   0.394790  6.819128E-03  0.987577
   0.396794  6.663873E-03  0.987771
   0.398798  6.527591E-03  0.987946
   0.400802  6.408052E-03  0.988103
   0.402806  6.302653E-03  0.988246
   0.404810  6.208534E-03  0.988376
   0.406814  6.122698E-03  0.988498
   0.408818  6.042151E-03  0.988614
   0.410822  5.964043E-03  0.988728
   0.412826  5.885739E-03  0.988840
   0.414830  5.804942E-03  0.988955
   0.416834  5.719754E-03  0.989074
   0.418838  5.628710E-03  0.989197
   0.420842  5.530857E-03  0.989328
   0.422846  5.425697E-03  0.989464
   0.424850  5.313220E-03  0.989608
   0.426854  5.193870E-03  0.989759
   0.428858  5.068468E-03  0.989914
   0.430862  4.938180E-03  0.990075
   0.432866  4.804425E-03  0.990238
   0.434870  4.668853E-03  0.990403
   0.436874  4.533142E-03  0.990567
   0.438878  4.399059E-03  0.990730
   0.440882  4.268299E-03  0.990889
   0.442886  4.142426E-03  0.991042
   0.444890  4.022839E-03  0.991189
   0.446894  3.910702E-03  0.991329
   0.448898  3.806875E-03  0.991460
   0.450902  3.711968E-03  0.991581
   0.452906  3.626248E-03  0.991693
   0.454910  3.549690E-03  0.991795
   0.456914  3.481978E-03  0.991889
   0.458918  3.422520E-03  0.991974
   0.460922  3.370493E-03  0.992051
   0.462926  3.324887E-03  0.992121
   0.464930  3.284545E-03  0.992186
   0.466934  3.248225E-03  0.992247
   0.468938  3.214628E-03  0.992305
   0.470942  3.182488E-03  0.992360
   0.472946  3.150590E-03  0.992416
   0.474950  3.117815E-03  0.992471
   0.476954  3.083196E-03  0.992529
   0.478958  3.045934E-03  0.992589
   0.480962  3.005416E-03  0.992652
   0.482966  2.961250E-03  0.992718
   0.484970  2.913237E-03  0.992788
   0.486974  2.861411E-03  0.992861
   0.488978  2.805973E-03  0.992938
   0.490982  2.747321E-03  0.993017
   0.492986  2.686007E-03  0.993100
   0.494990  2.622697E-03  0.993183
   0.496994  2.558167E-03  0.993268
   0.498998  2.493212E-03  0.993353
   0.501002  2.428703E-03  0.993438
   0.503006  2.365449E-03  0.993521
   0.505010  2.304237E-03  0.993602
   0.507014  2.245791E-03  0.993679
   0.509018  2.190700E-03  0.993754
   0.511022  2.139460E-03  0.993824
   0.513026  2.092422E-03  0.993890
   0.515030  2.049807E-03  0.993951
   0.517034  2.011663E-03  0.994008
   0.519038  1.977925E-03  0.994060
   0.521042  1.948362E-03  0.994107
   0.523046  1.922642E-03  0.994151
   0.525050  1.900317E-03  0.994191
   0.527054  1.880851E-03  0.994228
   0.529058  1.863658E-03  0.994263
   0.531062  1.848098E-03  0.994296
   0.533066  1.833528E-03  0.994327
   0.535070  1.819311E-03  0.994359
   0.537074  1.804851E-03  0.994390
   0.539078  1.789597E-03  0.994422
   0.541082  1.773076E-03  0.994455
   0.543086  1.754899E-03  0.994489
   0.545090  1.734783E-03  0.994525
   0.547094  1.712535E-03  0.994564
   0.549098  1.688082E-03  0.994604
   0.551102  1.661454E-03  0.994646
   0.553106  1.632774E-03  0.994691
   0.555110  1.602261E-03  0.994736
   0.557114  1.570222E-03  0.994784
   0.559118  1.537010E-03  0.994832
   0.561122  1.503033E-03  0.994881
   0.563126  1.468742E-03  0.994930
   0.565130  1.434598E-03  0.994979
   0.567134  1.401031E-03  0.995027
   0.569138  1.368490E-03  0.995074
   0.571142  1.337357E-03  0.995120
   0.573146  1.307985E-03  0.995163
   0.575150  1.280641E-03  0.995205
   0.577154  1.255542E-03  0.995244
   0.579158  1.232816E-03  0.995280
   0.581162  1.212523E-03  0.995314
   0.583166  1.194636E-03  0.995346
   0.585170  1.179055E-03  0.995375
   0.587174  1.165615E-03  0.995402
   0.589178  1.154085E-03  0.995427
   0.591182  1.144187E-03  0.995450
   0.593186  1.135598E-03  0.995472
   0.595190  1.127972E-03  0.995493
   0.597194  1.120956E-03  0.995512
   0.599198  1.114189E-03  0.995532
   0.601202  1.107320E-03  0.995552
   0.603206  1.100034E-03  0.995572
   0.605210  1.092046E-03  0.995592
   0.607214  1.083117E-03  0.995613
   0.609218  1.073053E-03  0.995636
   0.611222  1.061725E-03  0.995659
   0.613226  1.049060E-03  0.995684
   0.615230  1.035047E-03  0.995710
   0.617234  1.019727E-03  0.995737
   0.619238  1.003215E-03  0.995765
   0.621242  9.856396E-04  0.995795
   0.623246  9.672090E-04  0.995825
   0.625251  9.481472E-04  0.995855
   0.627255  9.286970E-04  0.995886
   0.629259  9.091317E-04  0.995917
   0.631263  8.897174E-04  0.995948
   0.633267  8.707091E-04  0.995978
   0.635271  8.523656E-04  0.996008
   0.637275  8.348990E-04  0.996036
   0.639279  8.185129E-04  0.996064
   0.641283  8.033544E-04  0.996089
   0.643287  7.895433E-04  0.996114
   0.645291  7.771434E-04  0.996137
   0.647295  7.661768E-04  0.996159
   0.649299  7.566180E-04  0.996179
   0.651303  7.484021E-04  0.996198
   0.653307  7.414176E-04  0.996215
   0.655311  7.355244E-04  0.996232
   0.657315  7.305489E-04  0.996247
   0.659319  7.262938E-04  0.996261
   0.661323  7.225542E-04  0.996275
   0.663327  7.191096E-04  0.996289
   0.665331  7.157463E-04  0.996302
   0.667335  7.122550E-04  0.996315
   0.669339  7.084436E-04  0.996329
   0.671343  7.041438E-04  0.996343
   0.673347  6.992099E-04  0.996358
   0.675351  6.935298E-04  0.996373
   0.677355  6.870291E-04  0.996389
   0.679359  6.796653E-04  0.996406
   0.681363  6.714315E-04  0.996424
   0.683367  6.623572E-04  0.996442
   0.685371  6.525069E-04  0.996461
   0.687375  6.419786E-04  0.996481
   0.689379  6.308913E-04  0.996501
   0.691383  6.193788E-04  0.996522
   0.693387  6.076089E-04  0.996543
   0.695391  5.957423E-04  0.996564
   0.697395  5.839390E-04  0.996585
   0.699399  5.723748E-04  0.996605
   0.701403  5.612072E-04  0.996625
   0.703407  5.505780E-04  0.996644
   0.705411  5.406028E-04  0.996663
   0.707415  5.313877E-04  0.996681
   0.709419  5.230085E-04  0.996698
   0.711423  5.155133E-04  0.996714
   0.713427  5.089160E-04  0.996729
   0.715431  5.032072E-04  0.996743
   0.717435  4.983487E-04  0.996756
   0.719439  4.942758E-04  0.996769
   0.721443  4.909027E-04  0.996781
   0.723447  4.881179E-04  0.996792
   0.725451  4.858057E-04  0.996802
   0.727455  4.838289E-04  0.996812
   0.729459  4.820513E-04  0.996822
   0.731463  4.803356E-04  0.996832
   0.733467  4.785445E-04  0.996842
   0.735471  4.765521E-04  0.996852
   0.737475  4.742466E-04  0.996862
   0.739479  4.715318E-04  0.996873
   0.741483  4.683275E-04  0.996884
   0.743487  4.645799E-04  0.996895
   0.745491  4.602564E-04  0.996907
   0.747495  4.553464E-04  0.996919
   0.749499  4.498635E-04  0.996933
   0.751503  4.438437E-04  0.996946
   0.753507  4.373431E-04  0.996960
   0.755511  4.304356E-04  0.996975
   0.757515  4.232072E-04  0.996989
   0.759519  4.157636E-04  0.997004
   0.761523  4.082078E-04  0.997019
   0.763527  4.006529E-04  0.997034
   0.765531  3.932076E-04  0.997048
   0.767535  3.859812E-04  0.997063
   0.769539  3.790679E-04  0.997077
   0.771543  3.725580E-04  0.997091
   0.773547  3.665236E-04  0.997104
   0.775551  3.610206E-04  0.997116
   0.777555  3.560880E-04  0.997128
   0.779559  3.517466E-04  0.997140
   0.781563  3.479981E-04  0.997150
   0.783567  3.448225E-04  0.997160
   0.785571  3.421862E-04  0.997170
   0.787575  3.400362E-04  0.997179
   0.789579  3.383063E-04  0.997187
   0.791583  3.369219E-04  0.997195
   0.793587  3.357949E-04  0.997203
   0.795591  3.348343E-04  0.997211
   0.797595  3.339497E-04  0.997218
   0.799599  3.330449E-04  0.997226
   0.801603  3.320336E-04  0.997233
   0.803607  3.308361E-04  0.997241
   0.805611  3.293804E-04  0.997249
   0.807615  3.276082E-04  0.997257
   0.809619  3.254737E-04  0.997266
   0.811623  3.229470E-04  0.997275
   0.813627  3.200120E-04  0.997284
   0.815631  3.166724E-04  0.997293
   0.817635  3.129418E-04  0.997303
   0.819639  3.088530E-04  0.997314
   0.821643  3.044498E-04  0.997324
   0.823647  2.997888E-04  0.997335
   0.825651  2.949314E-04  0.997346
   0.827655  2.899530E-04  0.997357
   0.829659  2.849230E-04  0.997369
   0.831663  2.799215E-04  0.997379
   0.833667  2.750245E-04  0.997390
   0.835671  2.703011E-04  0.997401
   0.837675  2.658172E-04  0.997411
   0.839679  2.616277E-04  0.997422
   0.841683  2.577802E-04  0.997431
   0.843687  2.543099E-04  0.997441
   0.845691  2.512369E-04  0.997449
   0.847695  2.485723E-04  0.997458
   0.849699  2.463117E-04  0.997466
   0.851703  2.444377E-04  0.997473
   0.853707  2.429215E-04  0.997481
   0.855711  2.417240E-04  0.997488
   0.857715  2.407983E-04  0.997494
   0.859719  2.400857E-04  0.997501
   0.861723  2.395277E-04  0.997507
   0.863727  2.390583E-04  0.997513
   0.865731  2.386139E-04  0.997518
   0.867736  2.381299E-04  0.997525
   0.869739  2.375479E-04  0.997531
   0.871744  2.368119E-04  0.997537
   0.873748  2.358746E-04  0.997543
   0.875751  2.346992E-04  0.997550
   0.877756  2.332549E-04  0.997557
   0.879760  2.315247E-04  0.997564
   0.881764  2.295021E-04  0.997571
   0.883768  2.271902E-04  0.997579
   0.885772  2.246030E-04  0.997586
   0.887776  2.217671E-04  0.997595
   0.889780  2.187127E-04  0.997603
   0.891784  2.154849E-04  0.997611
   0.893788  2.121264E-04  0.997620
   0.895792  2.086903E-04  0.997629
   0.897796  2.052319E-04  0.997637
   0.899800  2.018022E-04  0.997645
   0.901804  1.984572E-04  0.997654
   0.903808  1.952434E-04  0.997662
   0.905812  1.922093E-04  0.997670
   0.907816  1.893918E-04  0.997678
   0.909820  1.868212E-04  0.997685
   0.911824  1.845228E-04  0.997692
   0.913828  1.825086E-04  0.997699
   0.915832  1.807833E-04  0.997706
   0.917836  1.793440E-04  0.997712
   0.919840  1.781763E-04  0.997718
   0.921844  1.772575E-04  0.997724
   0.923848  1.765590E-04  0.997730
   0.925852  1.760457E-04  0.997735
   0.927856  1.756742E-04  0.997740
   0.929860  1.754031E-04  0.997745
   0.931864  1.751847E-04  0.997750
   0.933868  1.749724E-04  0.997755
   0.935872  1.747223E-04  0.997760
   0.937876  1.743906E-04  0.997765
   0.939880  1.739382E-04  0.997770
   0.941884  1.733329E-04  0.997775
   0.943888  1.725480E-04  0.997780
   0.945892  1.715627E-04  0.997786
   0.947896  1.703655E-04  0.997792
   0.949900  1.689526E-04  0.997797
   0.951904  1.673287E-04  0.997804
   0.953908  1.655059E-04  0.997810
   0.955912  1.634981E-04  0.997816
   0.957916  1.613348E-04  0.997823
   0.959920  1.590462E-04  0.997830
   0.961924  1.566659E-04  0.997836
   0.963928  1.542313E-04  0.997843
   0.965932  1.517802E-04  0.997850
   0.967936  1.493551E-04  0.997857
   0.969940  1.469930E-04  0.997863
   0.971944  1.447289E-04  0.997870
   0.973948  1.425975E-04  0.997877
   0.975952  1.406256E-04  0.997883
   0.977956  1.388359E-04  0.997889
   0.979960  1.372432E-04  0.997895
   0.981964  1.358610E-04  0.997900
   0.983968  1.346898E-04  0.997905
   0.985972  1.337257E-04  0.997911
   0.987976  1.329598E-04  0.997916
   0.989980  1.323738E-04  0.997920
   0.991984  1.319479E-04  0.997925
   0.993988  1.316539E-04  0.997929
   0.995992  1.314625E-04  0.997934
   0.997996  1.313411E-04  0.997938
   1.00000  1.312544E-04  0.997942
