 B4C 60.nm on Si at 7500.eV, P=0.
 Angle (deg), Reflectivity, Transmission into substrate
   0.000000  1.00000  0.000000
   2.004008E-03  0.999980  2.197346E-12
   4.008016E-03  0.999960  4.403906E-12
   6.012024E-03  0.999939  6.628992E-12
   8.016032E-03  0.999919  8.882071E-12
   1.002004E-02  0.999899  1.117282E-11
   1.202405E-02  0.999879  1.351117E-11
   1.402806E-02  0.999859  1.590743E-11
   1.603206E-02  0.999838  1.837232E-11
   1.803607E-02  0.999818  2.091719E-11
   2.004008E-02  0.999798  2.355376E-11
   2.204409E-02  0.999777  2.629482E-11
   2.404810E-02  0.999757  2.915353E-11
   2.605210E-02  0.999736  3.214445E-11
   2.805611E-02  0.999716  3.528275E-11
   3.006012E-02  0.999695  3.858519E-11
   3.206413E-02  0.999674  4.206955E-11
   3.406814E-02  0.999654  4.575548E-11
   3.607215E-02  0.999633  4.966393E-11
   3.807615E-02  0.999612  5.381807E-11
   4.008016E-02  0.999591  5.824314E-11
   4.208417E-02  0.999570  6.296654E-11
   4.408818E-02  0.999549  6.801902E-11
   4.609219E-02  0.999528  7.343356E-11
   4.809619E-02  0.999506  7.924712E-11
   5.010020E-02  0.999485  8.550011E-11
   5.210421E-02  0.999463  9.223763E-11
   5.410822E-02  0.999441  9.950960E-11
   5.611223E-02  0.999419  1.073704E-10
   5.811623E-02  0.999397  1.158823E-10
   6.012024E-02  0.999375  1.251128E-10
   6.212425E-02  0.999353  1.351383E-10
   6.412826E-02  0.999331  1.460438E-10
   6.613226E-02  0.999308  1.579233E-10
   6.813627E-02  0.999285  1.708840E-10
   7.014028E-02  0.999262  1.850443E-10
   7.214429E-02  0.999239  2.005375E-10
   7.414830E-02  0.999216  2.175144E-10
   7.615230E-02  0.999192  2.361434E-10
   7.815631E-02  0.999169  2.566159E-10
   8.016032E-02  0.999145  2.791466E-10
   8.216433E-02  0.999120  3.039784E-10
   8.416834E-02  0.999096  3.313873E-10
   8.617234E-02  0.999071  3.616865E-10
   8.817635E-02  0.999046  3.952310E-10
   9.018036E-02  0.999021  4.324242E-10
   9.218437E-02  0.998996  4.737279E-10
   9.418838E-02  0.998970  5.196678E-10
   9.619239E-02  0.998944  5.708464E-10
   9.819639E-02  0.998918  6.279522E-10
   0.100200  0.998891  6.917755E-10
   0.102204  0.998864  7.632290E-10
   0.104208  0.998837  8.433575E-10
   0.106212  0.998809  9.333728E-10
   0.108216  0.998781  1.034672E-09
   0.110220  0.998752  1.148874E-09
   0.112224  0.998723  1.277860E-09
   0.114228  0.998694  1.423821E-09
   0.116232  0.998664  1.589299E-09
   0.118236  0.998634  1.777278E-09
   0.120240  0.998603  1.991249E-09
   0.122244  0.998572  2.235297E-09
   0.124248  0.998540  2.514241E-09
   0.126253  0.998507  2.833743E-09
   0.128257  0.998474  3.200526E-09
   0.130261  0.998441  3.622523E-09
   0.132265  0.998406  4.109165E-09
   0.134269  0.998371  4.671705E-09
   0.136273  0.998336  5.323552E-09
   0.138277  0.998299  6.080778E-09
   0.140281  0.998262  6.962688E-09
   0.142285  0.998224  7.992533E-09
   0.144289  0.998185  9.198386E-09
   0.146293  0.998145  1.061428E-08
   0.148297  0.998104  1.228166E-08
   0.150301  0.998062  1.425102E-08
   0.152305  0.998019  1.658417E-08
   0.154309  0.997975  1.935713E-08
   0.156313  0.997929  2.266362E-08
   0.158317  0.997883  2.661967E-08
   0.160321  0.997835  3.136945E-08
   0.162325  0.997785  3.709306E-08
   0.164329  0.997734  4.401626E-08
   0.166333  0.997681  5.242319E-08
   0.168337  0.997626  6.267352E-08
   0.170341  0.997570  7.522451E-08
   0.172345  0.997511  9.066051E-08
   0.174349  0.997451  1.097324E-07
   0.176353  0.997387  1.334098E-07
   0.178357  0.997321  1.629538E-07
   0.180361  0.997253  2.000122E-07
   0.182365  0.997181  2.467547E-07
   0.184369  0.997106  3.060570E-07
   0.186373  0.997028  3.817559E-07
   0.188377  0.996945  4.790131E-07
   0.190381  0.996858  6.048305E-07
   0.192385  0.996767  7.687801E-07
   0.194389  0.996670  9.840800E-07
   0.196393  0.996567  1.269157E-06
   0.198397  0.996458  1.649984E-06
   0.200401  0.996340  2.163559E-06
   0.202405  0.996215  2.863290E-06
   0.204409  0.996080  3.827261E-06
   0.206413  0.995933  5.171354E-06
   0.208417  0.995774  7.070292E-06
   0.210421  0.995599  9.792268E-06
   0.212425  0.995405  1.375696E-05
   0.214429  0.995190  1.963586E-05
   0.216433  0.994948  2.853015E-05
   0.218437  0.994670  4.229681E-05
   0.220441  0.994347  6.417079E-05
   0.222445  0.993963  1.000041E-04
   0.224449  0.993492  1.608634E-04
   0.226453  0.992892  2.688273E-04
   0.228457  0.992083  4.709531E-04
   0.230461  0.990901  8.761412E-04
   0.232465  0.988973  1.764829E-03
   0.234469  0.985281  3.967426E-03
   0.236473  0.976492  1.041782E-02
   0.238477  0.949672  3.314724E-02
   0.240481  0.863876  0.111962
   0.242485  0.680488  0.287250
   0.244489  0.469807  0.493957
   0.246493  0.337352  0.627816
   0.248497  0.285251  0.683397
   0.250501  0.270275  0.701611
   0.252505  0.264990  0.709329
   0.254509  0.258744  0.717289
   0.256513  0.248652  0.728576
   0.258517  0.234743  0.743333
   0.260521  0.218024  0.760678
   0.262525  0.199754  0.779441
   0.264529  0.181148  0.798469
   0.266533  0.163241  0.816766
   0.268537  0.146824  0.833566
   0.270541  0.132412  0.848368
   0.272545  0.120253  0.860927
   0.274549  0.110363  0.871225
   0.276553  0.102575  0.879426
   0.278557  9.660283E-02  0.885810
   0.280561  9.209334E-02  0.890723
   0.282565  8.867908E-02  0.894527
   0.284569  8.601248E-02  0.897566
   0.286573  8.378944E-02  0.900141
   0.288577  8.176178E-02  0.902498
   0.290581  7.974138E-02  0.904826
   0.292585  7.759815E-02  0.907254
   0.294589  7.525416E-02  0.909862
   0.296593  7.267632E-02  0.912686
   0.298597  6.986766E-02  0.915723
   0.300601  6.685875E-02  0.918946
   0.302605  6.369998E-02  0.922307
   0.304609  6.045353E-02  0.925746
   0.306613  5.718704E-02  0.929195
   0.308617  5.396834E-02  0.932591
   0.310621  5.086033E-02  0.935871
   0.312625  4.791771E-02  0.938981
   0.314629  4.518471E-02  0.941878
   0.316633  4.269321E-02  0.944531
   0.318637  4.046259E-02  0.946920
   0.320641  3.849980E-02  0.949039
   0.322645  3.680027E-02  0.950893
   0.324649  3.534977E-02  0.952495
   0.326653  3.412584E-02  0.953869
   0.328657  3.310002E-02  0.955041
   0.330661  3.224003E-02  0.956044
   0.332665  3.151168E-02  0.956912
   0.334669  3.088067E-02  0.957679
   0.336673  3.031430E-02  0.958378
   0.338677  2.978265E-02  0.959038
   0.340681  2.925961E-02  0.959685
   0.342685  2.872356E-02  0.960341
   0.344689  2.815777E-02  0.961023
   0.346693  2.755039E-02  0.961743
   0.348697  2.689452E-02  0.962507
   0.350701  2.618774E-02  0.963319
   0.352705  2.543174E-02  0.964176
   0.354709  2.463169E-02  0.965075
   0.356713  2.379565E-02  0.966007
   0.358717  2.293372E-02  0.966962
   0.360721  2.205752E-02  0.967929
   0.362725  2.117937E-02  0.968896
   0.364729  2.031169E-02  0.969851
   0.366733  1.946641E-02  0.970781
   0.368737  1.865445E-02  0.971677
   0.370741  1.788527E-02  0.972529
   0.372745  1.716669E-02  0.973329
   0.374750  1.650444E-02  0.974072
   0.376754  1.590233E-02  0.974753
   0.378758  1.536198E-02  0.975371
   0.380762  1.488308E-02  0.975927
   0.382766  1.446342E-02  0.976423
   0.384770  1.409918E-02  0.976862
   0.386774  1.378515E-02  0.977249
   0.388778  1.351503E-02  0.977592
   0.390782  1.328174E-02  0.977897
   0.392786  1.307780E-02  0.978171
   0.394790  1.289553E-02  0.978422
   0.396794  1.272744E-02  0.978658
   0.398798  1.256645E-02  0.978885
   0.400802  1.240608E-02  0.979111
   0.402806  1.224068E-02  0.979340
   0.404810  1.206557E-02  0.979577
   0.406814  1.187710E-02  0.979827
   0.408818  1.167271E-02  0.980091
   0.410822  1.145094E-02  0.980372
   0.412826  1.121137E-02  0.980669
   0.414830  1.095457E-02  0.980982
   0.416834  1.068203E-02  0.981310
   0.418838  1.039598E-02  0.981650
   0.420842  1.009924E-02  0.982000
   0.422846  9.795183E-03  0.982357
   0.424850  9.487381E-03  0.982716
   0.426854  9.179651E-03  0.983075
   0.428858  8.875763E-03  0.983429
   0.430862  8.579346E-03  0.983775
   0.432866  8.293795E-03  0.984109
   0.434870  8.022029E-03  0.984429
   0.436874  7.766582E-03  0.984732
   0.438878  7.529444E-03  0.985017
   0.440882  7.311974E-03  0.985281
   0.442886  7.114972E-03  0.985524
   0.444890  6.938613E-03  0.985746
   0.446894  6.782504E-03  0.985947
   0.448898  6.645723E-03  0.986128
   0.450902  6.526863E-03  0.986292
   0.452906  6.424108E-03  0.986437
   0.454910  6.335323E-03  0.986570
   0.456914  6.258137E-03  0.986689
   0.458918  6.190019E-03  0.986799
   0.460922  6.128391E-03  0.986902
   0.462926  6.070694E-03  0.987001
   0.464930  6.014485E-03  0.987097
   0.466934  5.957506E-03  0.987194
   0.468938  5.897734E-03  0.987292
   0.470942  5.833450E-03  0.987395
   0.472946  5.763261E-03  0.987504
   0.474950  5.686141E-03  0.987618
   0.476954  5.601430E-03  0.987740
   0.478958  5.508847E-03  0.987868
   0.480962  5.408461E-03  0.988005
   0.482966  5.300679E-03  0.988148
   0.484970  5.186219E-03  0.988297
   0.486974  5.066055E-03  0.988452
   0.488978  4.941382E-03  0.988611
   0.490982  4.813554E-03  0.988772
   0.492986  4.684050E-03  0.988935
   0.494990  4.554366E-03  0.989097
   0.496994  4.426063E-03  0.989258
   0.498998  4.300608E-03  0.989416
   0.501002  4.179366E-03  0.989569
   0.503006  4.063603E-03  0.989716
   0.505010  3.954382E-03  0.989856
   0.507014  3.852576E-03  0.989989
   0.509018  3.758834E-03  0.990113
   0.511022  3.673572E-03  0.990229
   0.513026  3.596976E-03  0.990336
   0.515030  3.528976E-03  0.990434
   0.517034  3.469311E-03  0.990523
   0.519038  3.417488E-03  0.990604
   0.521042  3.372835E-03  0.990677
   0.523046  3.334538E-03  0.990744
   0.525050  3.301652E-03  0.990806
   0.527054  3.273129E-03  0.990862
   0.529058  3.247888E-03  0.990915
   0.531062  3.224814E-03  0.990966
   0.533066  3.202816E-03  0.991015
   0.535070  3.180836E-03  0.991064
   0.537074  3.157913E-03  0.991113
   0.539078  3.133178E-03  0.991164
   0.541082  3.105880E-03  0.991218
   0.543086  3.075421E-03  0.991274
   0.545090  3.041355E-03  0.991333
   0.547094  3.003386E-03  0.991397
   0.549098  2.961390E-03  0.991463
   0.551102  2.915403E-03  0.991534
   0.553106  2.865602E-03  0.991608
   0.555110  2.812306E-03  0.991686
   0.557114  2.755963E-03  0.991766
   0.559118  2.697105E-03  0.991849
   0.561122  2.636381E-03  0.991933
   0.563126  2.574458E-03  0.992018
   0.565130  2.512084E-03  0.992103
   0.567134  2.449976E-03  0.992188
   0.569138  2.388861E-03  0.992272
   0.571142  2.329427E-03  0.992353
   0.573146  2.272310E-03  0.992433
   0.575150  2.218100E-03  0.992509
   0.577154  2.167241E-03  0.992582
   0.579158  2.120146E-03  0.992651
   0.581162  2.077068E-03  0.992715
   0.583166  2.038189E-03  0.992775
   0.585170  2.003549E-03  0.992831
   0.587174  1.973093E-03  0.992883
   0.589178  1.946657E-03  0.992930
   0.591182  1.923981E-03  0.992973
   0.593186  1.904715E-03  0.993013
   0.595190  1.888442E-03  0.993050
   0.597194  1.874681E-03  0.993084
   0.599198  1.862913E-03  0.993115
   0.601202  1.852584E-03  0.993146
   0.603206  1.843141E-03  0.993175
   0.605210  1.834030E-03  0.993203
   0.607214  1.824731E-03  0.993232
   0.609218  1.814747E-03  0.993261
   0.611222  1.803642E-03  0.993291
   0.613226  1.791035E-03  0.993323
   0.615230  1.776616E-03  0.993356
   0.617234  1.760156E-03  0.993391
   0.619238  1.741496E-03  0.993427
   0.621242  1.720573E-03  0.993466
   0.623246  1.697392E-03  0.993508
   0.625251  1.672043E-03  0.993551
   0.627255  1.644684E-03  0.993596
   0.629259  1.615538E-03  0.993643
   0.631263  1.584898E-03  0.993691
   0.633267  1.553077E-03  0.993740
   0.635271  1.520449E-03  0.993789
   0.637275  1.487390E-03  0.993840
   0.639279  1.454303E-03  0.993890
   0.641283  1.421578E-03  0.993939
   0.643287  1.389604E-03  0.993988
   0.645291  1.358734E-03  0.994035
   0.647295  1.329295E-03  0.994081
   0.649299  1.301569E-03  0.994125
   0.651303  1.275793E-03  0.994167
   0.653307  1.252141E-03  0.994206
   0.655311  1.230740E-03  0.994244
   0.657315  1.211647E-03  0.994279
   0.659319  1.194864E-03  0.994311
   0.661323  1.180333E-03  0.994341
   0.663327  1.167939E-03  0.994369
   0.665331  1.157519E-03  0.994395
   0.667335  1.148864E-03  0.994419
   0.669339  1.141729E-03  0.994441
   0.671343  1.135838E-03  0.994462
   0.673347  1.130895E-03  0.994482
   0.675351  1.126592E-03  0.994501
   0.677355  1.122618E-03  0.994520
   0.679359  1.118665E-03  0.994539
   0.681363  1.114449E-03  0.994557
   0.683367  1.109695E-03  0.994577
   0.685371  1.104164E-03  0.994596
   0.687375  1.097656E-03  0.994617
   0.689379  1.090002E-03  0.994639
   0.691383  1.081080E-03  0.994662
   0.693387  1.070816E-03  0.994686
   0.695391  1.059175E-03  0.994711
   0.697395  1.046175E-03  0.994738
   0.699399  1.031871E-03  0.994766
   0.701403  1.016361E-03  0.994795
   0.703407  9.997889E-04  0.994825
   0.705411  9.823090E-04  0.994856
   0.707415  9.641282E-04  0.994887
   0.709419  9.454503E-04  0.994919
   0.711423  9.265080E-04  0.994951
   0.713427  9.075302E-04  0.994983
   0.715431  8.887476E-04  0.995014
   0.717435  8.703897E-04  0.995045
   0.719439  8.526719E-04  0.995076
   0.721443  8.357767E-04  0.995106
   0.723447  8.198855E-04  0.995134
   0.725451  8.051261E-04  0.995161
   0.727455  7.916203E-04  0.995187
   0.729459  7.794373E-04  0.995212
   0.731463  7.686178E-04  0.995235
   0.733467  7.591678E-04  0.995256
   0.735471  7.510592E-04  0.995277
   0.737475  7.442268E-04  0.995295
   0.739479  7.385781E-04  0.995313
   0.741483  7.339935E-04  0.995329
   0.743487  7.303298E-04  0.995345
   0.745491  7.274235E-04  0.995360
   0.747495  7.250968E-04  0.995374
   0.749499  7.231711E-04  0.995387
   0.751503  7.214529E-04  0.995400
   0.753507  7.197594E-04  0.995413
   0.755511  7.179132E-04  0.995427
   0.757515  7.157424E-04  0.995440
   0.759519  7.131015E-04  0.995454
   0.761523  7.098569E-04  0.995469
   0.763527  7.059011E-04  0.995484
   0.765531  7.011520E-04  0.995499
   0.767535  6.955548E-04  0.995516
   0.769539  6.890803E-04  0.995533
   0.771543  6.817263E-04  0.995551
   0.773547  6.735244E-04  0.995570
   0.775551  6.645254E-04  0.995590
   0.777555  6.548024E-04  0.995610
   0.779559  6.444568E-04  0.995631
   0.781563  6.336023E-04  0.995653
   0.783567  6.223699E-04  0.995674
   0.785571  6.108885E-04  0.995696
   0.787575  5.993125E-04  0.995718
   0.789579  5.877889E-04  0.995740
   0.791583  5.764570E-04  0.995761
   0.793587  5.654510E-04  0.995782
   0.795591  5.549081E-04  0.995803
   0.797595  5.449340E-04  0.995823
   0.799599  5.356363E-04  0.995842
   0.801603  5.270865E-04  0.995861
   0.803607  5.193501E-04  0.995878
   0.805611  5.124581E-04  0.995895
   0.807615  5.064313E-04  0.995911
   0.809619  5.012614E-04  0.995926
   0.811623  4.969226E-04  0.995939
   0.813627  4.933638E-04  0.995953
   0.815631  4.905205E-04  0.995965
   0.817635  4.883096E-04  0.995977
   0.819639  4.866326E-04  0.995988
   0.821643  4.853853E-04  0.995999
   0.823647  4.844499E-04  0.996009
   0.825651  4.837106E-04  0.996019
   0.827655  4.830439E-04  0.996028
   0.829659  4.823341E-04  0.996039
   0.831663  4.814671E-04  0.996049
   0.833667  4.803406E-04  0.996059
   0.835671  4.788605E-04  0.996069
   0.837675  4.769478E-04  0.996080
   0.839679  4.745383E-04  0.996092
   0.841683  4.715821E-04  0.996103
   0.843687  4.680496E-04  0.996116
   0.845691  4.639280E-04  0.996129
   0.847695  4.592245E-04  0.996142
   0.849699  4.539575E-04  0.996156
   0.851703  4.481702E-04  0.996170
   0.853707  4.419145E-04  0.996185
   0.855711  4.352556E-04  0.996200
   0.857715  4.282744E-04  0.996216
   0.859719  4.210539E-04  0.996231
   0.861723  4.136855E-04  0.996247
   0.863727  4.062720E-04  0.996263
   0.865731  3.989025E-04  0.996279
   0.867736  3.916739E-04  0.996294
   0.869739  3.846771E-04  0.996309
   0.871744  3.779953E-04  0.996324
   0.873748  3.716997E-04  0.996339
   0.875751  3.658592E-04  0.996353
   0.877756  3.605188E-04  0.996366
   0.879760  3.557199E-04  0.996379
   0.881764  3.514826E-04  0.996391
   0.883768  3.478185E-04  0.996403
   0.885772  3.447204E-04  0.996414
   0.887776  3.421679E-04  0.996424
   0.889780  3.401277E-04  0.996434
   0.891784  3.385543E-04  0.996443
   0.893788  3.373922E-04  0.996452
   0.895792  3.365756E-04  0.996461
   0.897796  3.360317E-04  0.996469
   0.899800  3.356842E-04  0.996477
   0.901804  3.354533E-04  0.996485
   0.903808  3.352576E-04  0.996493
   0.905812  3.350188E-04  0.996501
   0.907816  3.346607E-04  0.996509
   0.909820  3.341149E-04  0.996516
   0.911824  3.333180E-04  0.996525
   0.913828  3.322165E-04  0.996533
   0.915832  3.307681E-04  0.996542
   0.917836  3.289397E-04  0.996551
   0.919840  3.267111E-04  0.996560
   0.921844  3.240736E-04  0.996571
   0.923848  3.210322E-04  0.996581
   0.925852  3.175995E-04  0.996591
   0.927856  3.138053E-04  0.996602
   0.929860  3.096847E-04  0.996613
   0.931864  3.052813E-04  0.996625
   0.933868  3.006525E-04  0.996636
   0.935872  2.958470E-04  0.996648
   0.937876  2.909411E-04  0.996660
   0.939880  2.859942E-04  0.996672
   0.941884  2.810710E-04  0.996684
   0.943888  2.762406E-04  0.996696
   0.945892  2.715607E-04  0.996707
   0.947896  2.670900E-04  0.996718
   0.949900  2.628831E-04  0.996729
   0.951904  2.589799E-04  0.996740
   0.953908  2.554231E-04  0.996750
   0.955912  2.522327E-04  0.996760
   0.957916  2.494298E-04  0.996770
   0.959920  2.470193E-04  0.996779
   0.961924  2.450014E-04  0.996787
   0.963928  2.433604E-04  0.996795
   0.965932  2.420754E-04  0.996803
   0.967936  2.411164E-04  0.996811
   0.969940  2.404452E-04  0.996818
   0.971944  2.400180E-04  0.996825
   0.973948  2.397837E-04  0.996832
   0.975952  2.396910E-04  0.996838
   0.977956  2.396826E-04  0.996844
   0.979960  2.397038E-04  0.996851
   0.981964  2.396997E-04  0.996857
   0.983968  2.396137E-04  0.996863
   0.985972  2.394014E-04  0.996870
   0.987976  2.390148E-04  0.996876
   0.989980  2.384154E-04  0.996883
   0.991984  2.375729E-04  0.996890
   0.993988  2.364618E-04  0.996898
   0.995992  2.350675E-04  0.996905
   0.997996  2.333812E-04  0.996913
   1.00000  2.314032E-04  0.996920
