 B4C 60.nm on Si at 10500.eV, P=0.
 Angle (deg), Reflectivity, Transmission into substrate
   0.000000  1.00000  0.000000
   2.004008E-03  0.999986  1.637391E-12
   4.008016E-03  0.999971  3.288302E-12
   6.012024E-03  0.999957  4.966479E-12
   8.016032E-03  0.999942  6.686039E-12
   1.002004E-02  0.999928  8.461730E-12
   1.202405E-02  0.999914  1.030914E-11
   1.402806E-02  0.999899  1.224492E-11
   1.603206E-02  0.999885  1.428701E-11
   1.803607E-02  0.999870  1.645505E-11
   2.004008E-02  0.999855  1.877058E-11
   2.204409E-02  0.999841  2.125754E-11
   2.404810E-02  0.999826  2.394246E-11
   2.605210E-02  0.999811  2.685545E-11
   2.805611E-02  0.999796  3.003025E-11
   3.006012E-02  0.999781  3.350499E-11
   3.206413E-02  0.999766  3.732340E-11
   3.406814E-02  0.999751  4.153538E-11
   3.607215E-02  0.999735  4.619779E-11
   3.807615E-02  0.999720  5.137665E-11
   4.008016E-02  0.999704  5.714789E-11
   4.208417E-02  0.999689  6.359938E-11
   4.408818E-02  0.999673  7.083337E-11
   4.609219E-02  0.999657  7.896873E-11
   4.809619E-02  0.999641  8.814478E-11
   5.010020E-02  0.999624  9.852408E-11
   5.210421E-02  0.999608  1.102984E-10
   5.410822E-02  0.999591  1.236928E-10
   5.611223E-02  0.999574  1.389746E-10
   5.811623E-02  0.999557  1.564589E-10
   6.012024E-02  0.999540  1.765213E-10
   6.212425E-02  0.999522  1.996095E-10
   6.412826E-02  0.999504  2.262592E-10
   6.613226E-02  0.999486  2.571123E-10
   6.813627E-02  0.999468  2.929421E-10
   7.014028E-02  0.999449  3.346816E-10
   7.214429E-02  0.999430  3.834639E-10
   7.414830E-02  0.999410  4.406631E-10
   7.615230E-02  0.999391  5.079599E-10
   7.815631E-02  0.999371  5.874125E-10
   8.016032E-02  0.999350  6.815500E-10
   8.216433E-02  0.999329  7.934993E-10
   8.416834E-02  0.999307  9.271292E-10
   8.617234E-02  0.999285  1.087269E-09
   8.817635E-02  0.999263  1.279951E-09
   9.018036E-02  0.999240  1.512753E-09
   9.218437E-02  0.999216  1.795236E-09
   9.418838E-02  0.999192  2.139540E-09
   9.619239E-02  0.999167  2.561136E-09
   9.819639E-02  0.999141  3.079856E-09
   0.100200  0.999115  3.721247E-09
   0.102204  0.999087  4.518444E-09
   0.104208  0.999059  5.514636E-09
   0.106212  0.999030  6.766522E-09
   0.108216  0.999000  8.348942E-09
   0.110220  0.998968  1.036146E-08
   0.112224  0.998936  1.293746E-08
   0.114228  0.998902  1.625696E-08
   0.116232  0.998866  2.056483E-08
   0.118236  0.998829  2.619701E-08
   0.120240  0.998791  3.361873E-08
   0.122244  0.998750  4.347991E-08
   0.124248  0.998707  5.669784E-08
   0.126253  0.998662  7.458137E-08
   0.128257  0.998614  9.901922E-08
   0.130261  0.998563  1.327701E-07
   0.132265  0.998509  1.799175E-07
   0.134269  0.998451  2.465931E-07
   0.136273  0.998389  3.421456E-07
   0.138277  0.998322  4.810715E-07
   0.140281  0.998249  6.862664E-07
   0.142285  0.998170  9.946451E-07
   0.144289  0.998082  1.467063E-06
   0.146293  0.997985  2.206425E-06
   0.148297  0.997876  3.391794E-06
   0.150301  0.997753  5.345043E-06
   0.152305  0.997611  8.666855E-06
   0.154309  0.997444  1.452908E-05
   0.156313  0.997243  2.534093E-05
   0.158317  0.996991  4.638540E-05
   0.160321  0.996660  9.022276E-05
   0.162325  0.996187  1.900505E-04
   0.164329  0.995416  4.474099E-04
   0.166333  0.993838  1.248727E-03
   0.168337  0.988986  4.726207E-03
   0.170341  0.956001  3.443549E-02
   0.172345  0.750071  0.234711
   0.174349  0.491071  0.491684
   0.176353  0.347114  0.636722
   0.178357  0.288877  0.696669
   0.180361  0.262496  0.724439
   0.182365  0.243355  0.744564
   0.184369  0.223891  0.764719
   0.186373  0.202968  0.786145
   0.188377  0.181515  0.807993
   0.190381  0.160888  0.828956
   0.192385  0.142236  0.847916
   0.194389  0.126264  0.864182
   0.196393  0.113206  0.877527
   0.198397  0.102904  0.888107
   0.200401  9.494177E-02  0.896339
   0.202405  8.877892E-02  0.902758
   0.204409  8.386621E-02  0.907912
   0.206413  7.971951E-02  0.912283
   0.208417  7.596000E-02  0.916250
   0.210421  7.232568E-02  0.920074
   0.212425  6.866433E-02  0.923911
   0.214429  6.491569E-02  0.927821
   0.216433  6.108877E-02  0.931799
   0.218437  5.723905E-02  0.935789
   0.220441  5.344722E-02  0.939713
   0.222445  4.980051E-02  0.943485
   0.224449  4.637935E-02  0.947027
   0.226453  4.324735E-02  0.950276
   0.228457  4.044522E-02  0.953190
   0.230461  3.798961E-02  0.955755
   0.232465  3.587370E-02  0.957977
   0.234469  3.407113E-02  0.959882
   0.236473  3.254066E-02  0.961512
   0.238477  3.123207E-02  0.962917
   0.240481  3.009146E-02  0.964151
   0.242485  2.906628E-02  0.965265
   0.244489  2.810926E-02  0.966308
   0.246493  2.718129E-02  0.967319
   0.248497  2.625299E-02  0.968326
   0.250501  2.530542E-02  0.969350
   0.252505  2.432965E-02  0.970399
   0.254509  2.332568E-02  0.971473
   0.256513  2.230079E-02  0.972565
   0.258517  2.126773E-02  0.973664
   0.260521  2.024239E-02  0.974752
   0.262525  1.924214E-02  0.975814
   0.264529  1.828368E-02  0.976833
   0.266533  1.738175E-02  0.977793
   0.268537  1.654791E-02  0.978683
   0.270541  1.578979E-02  0.979497
   0.272545  1.511079E-02  0.980230
   0.274549  1.451019E-02  0.980884
   0.276553  1.398339E-02  0.981463
   0.278557  1.352273E-02  0.981974
   0.280561  1.311812E-02  0.982429
   0.282565  1.275808E-02  0.982837
   0.284569  1.243058E-02  0.983212
   0.286573  1.212393E-02  0.983565
   0.288577  1.182743E-02  0.983906
   0.290581  1.153209E-02  0.984245
   0.292585  1.123097E-02  0.984589
   0.294589  1.091937E-02  0.984942
   0.296593  1.059496E-02  0.985307
   0.298597  1.025759E-02  0.985684
   0.300601  9.909047E-03  0.986071
   0.302605  9.552835E-03  0.986465
   0.304609  9.193473E-03  0.986861
   0.306613  8.836278E-03  0.987254
   0.308617  8.486763E-03  0.987639
   0.310621  8.150230E-03  0.988010
   0.312625  7.831423E-03  0.988363
   0.314629  7.534164E-03  0.988694
   0.316633  7.261168E-03  0.988999
   0.318637  7.013929E-03  0.989279
   0.320641  6.792650E-03  0.989532
   0.322645  6.596333E-03  0.989759
   0.324649  6.422919E-03  0.989963
   0.326653  6.269478E-03  0.990147
   0.328657  6.132415E-03  0.990314
   0.330661  6.007792E-03  0.990467
   0.332665  5.891554E-03  0.990612
   0.334669  5.779778E-03  0.990752
   0.336673  5.668934E-03  0.990890
   0.338677  5.556019E-03  0.991030
   0.340681  5.438732E-03  0.991174
   0.342685  5.315551E-03  0.991323
   0.344689  5.185751E-03  0.991478
   0.346693  5.049363E-03  0.991639
   0.348697  4.907162E-03  0.991806
   0.350701  4.760489E-03  0.991977
   0.352705  4.611182E-03  0.992150
   0.354709  4.461363E-03  0.992323
   0.356713  4.313298E-03  0.992494
   0.358717  4.169255E-03  0.992661
   0.360721  4.031305E-03  0.992821
   0.362725  3.901261E-03  0.992973
   0.364729  3.780547E-03  0.993116
   0.366733  3.670080E-03  0.993247
   0.368737  3.570313E-03  0.993368
   0.370741  3.481188E-03  0.993478
   0.372745  3.402164E-03  0.993578
   0.374750  3.332287E-03  0.993668
   0.376754  3.270245E-03  0.993750
   0.378758  3.214496E-03  0.993825
   0.380762  3.163332E-03  0.993896
   0.382766  3.115012E-03  0.993963
   0.384770  3.067855E-03  0.994029
   0.386774  3.020337E-03  0.994095
   0.388778  2.971151E-03  0.994163
   0.390782  2.919294E-03  0.994232
   0.392786  2.864088E-03  0.994305
   0.394790  2.805208E-03  0.994382
   0.396794  2.742666E-03  0.994462
   0.398798  2.676798E-03  0.994544
   0.400802  2.608230E-03  0.994630
   0.402806  2.537793E-03  0.994717
   0.404810  2.466496E-03  0.994804
   0.406814  2.395429E-03  0.994891
   0.408818  2.325701E-03  0.994977
   0.410822  2.258386E-03  0.995060
   0.412826  2.194427E-03  0.995140
   0.414830  2.134604E-03  0.995215
   0.416834  2.079506E-03  0.995285
   0.418838  2.029474E-03  0.995350
   0.420842  1.984615E-03  0.995410
   0.422846  1.944806E-03  0.995465
   0.424850  1.909686E-03  0.995514
   0.426854  1.878717E-03  0.995560
   0.428858  1.851198E-03  0.995601
   0.430862  1.826326E-03  0.995640
   0.432866  1.803240E-03  0.995677
   0.434870  1.781063E-03  0.995713
   0.436874  1.758967E-03  0.995748
   0.438878  1.736207E-03  0.995785
   0.440882  1.712158E-03  0.995822
   0.442886  1.686350E-03  0.995861
   0.444890  1.658472E-03  0.995902
   0.446894  1.628399E-03  0.995944
   0.448898  1.596179E-03  0.995989
   0.450902  1.562011E-03  0.996036
   0.452906  1.526264E-03  0.996084
   0.454910  1.489398E-03  0.996133
   0.456914  1.451954E-03  0.996182
   0.458918  1.414540E-03  0.996232
   0.460922  1.377758E-03  0.996280
   0.462926  1.342193E-03  0.996327
   0.464930  1.308364E-03  0.996373
   0.466934  1.276714E-03  0.996416
   0.468938  1.247569E-03  0.996456
   0.470942  1.221135E-03  0.996494
   0.472946  1.197494E-03  0.996529
   0.474950  1.176592E-03  0.996561
   0.476954  1.158254E-03  0.996590
   0.478958  1.142196E-03  0.996616
   0.480962  1.128048E-03  0.996641
   0.482966  1.115376E-03  0.996665
   0.484970  1.103697E-03  0.996687
   0.486974  1.092526E-03  0.996708
   0.488978  1.081393E-03  0.996730
   0.490982  1.069861E-03  0.996751
   0.492986  1.057562E-03  0.996774
   0.494990  1.044199E-03  0.996797
   0.496994  1.029577E-03  0.996821
   0.498998  1.013588E-03  0.996847
   0.501002  9.962345E-04  0.996874
   0.503006  9.775998E-04  0.996902
   0.505010  9.578755E-04  0.996931
   0.507014  9.373058E-04  0.996961
   0.509018  9.162063E-04  0.996992
   0.511022  8.949140E-04  0.997022
   0.513026  8.737828E-04  0.997052
   0.515030  8.531835E-04  0.997082
   0.517034  8.334276E-04  0.997111
   0.519038  8.148100E-04  0.997138
   0.521042  7.975654E-04  0.997164
   0.523046  7.818480E-04  0.997189
   0.525050  7.677529E-04  0.997211
   0.527054  7.552890E-04  0.997232
   0.529058  7.443933E-04  0.997252
   0.531062  7.349311E-04  0.997270
   0.533066  7.267118E-04  0.997286
   0.535070  7.194930E-04  0.997302
   0.537074  7.129982E-04  0.997317
   0.539078  7.069415E-04  0.997331
   0.541082  7.010221E-04  0.997345
   0.543086  6.949672E-04  0.997359
   0.545090  6.885231E-04  0.997373
   0.547094  6.814808E-04  0.997388
   0.549098  6.736783E-04  0.997404
   0.551102  6.650161E-04  0.997420
   0.553106  6.554539E-04  0.997437
   0.555110  6.450078E-04  0.997455
   0.557114  6.337484E-04  0.997474
   0.559118  6.218146E-04  0.997493
   0.561122  6.093640E-04  0.997513
   0.563126  5.966013E-04  0.997533
   0.565130  5.837474E-04  0.997553
   0.567134  5.710245E-04  0.997573
   0.569138  5.586568E-04  0.997593
   0.571142  5.468492E-04  0.997612
   0.573146  5.357763E-04  0.997630
   0.575150  5.255745E-04  0.997647
   0.577154  5.163403E-04  0.997663
   0.579158  5.081248E-04  0.997678
   0.581162  5.009257E-04  0.997692
   0.583166  4.946946E-04  0.997705
   0.585170  4.893444E-04  0.997717
   0.587174  4.847446E-04  0.997729
   0.589178  4.807416E-04  0.997739
   0.591182  4.771587E-04  0.997750
   0.593186  4.738046E-04  0.997759
   0.595190  4.704942E-04  0.997769
   0.597194  4.670497E-04  0.997779
   0.599198  4.633121E-04  0.997789
   0.601202  4.591467E-04  0.997800
   0.603206  4.544555E-04  0.997811
   0.605210  4.491728E-04  0.997822
   0.607214  4.432766E-04  0.997834
   0.609218  4.367808E-04  0.997847
   0.611222  4.297360E-04  0.997860
   0.613226  4.222249E-04  0.997874
   0.615230  4.143627E-04  0.997887
   0.617234  4.062766E-04  0.997901
   0.619238  3.981176E-04  0.997916
   0.621242  3.900358E-04  0.997930
   0.623246  3.821725E-04  0.997943
   0.625251  3.746655E-04  0.997956
   0.627255  3.676323E-04  0.997969
   0.629259  3.611665E-04  0.997981
   0.631263  3.553356E-04  0.997993
   0.633267  3.501703E-04  0.998004
   0.635271  3.456753E-04  0.998014
   0.637275  3.418188E-04  0.998023
   0.639279  3.385471E-04  0.998032
   0.641283  3.357748E-04  0.998040
   0.643287  3.333984E-04  0.998048
   0.645291  3.313022E-04  0.998056
   0.647295  3.293582E-04  0.998063
   0.649299  3.274430E-04  0.998070
   0.651303  3.254333E-04  0.998077
   0.653307  3.232224E-04  0.998085
   0.655311  3.207169E-04  0.998093
   0.657315  3.178469E-04  0.998101
   0.659319  3.145640E-04  0.998109
   0.661323  3.108531E-04  0.998118
   0.663327  3.067135E-04  0.998127
   0.665331  3.021807E-04  0.998137
   0.667335  2.973089E-04  0.998147
   0.669339  2.921725E-04  0.998157
   0.671343  2.868590E-04  0.998167
   0.673347  2.814667E-04  0.998177
   0.675351  2.760963E-04  0.998187
   0.677355  2.708553E-04  0.998197
   0.679359  2.658347E-04  0.998207
   0.681363  2.611218E-04  0.998217
   0.683367  2.567824E-04  0.998226
   0.685371  2.528677E-04  0.998235
   0.687375  2.494056E-04  0.998243
   0.689379  2.464031E-04  0.998250
   0.691383  2.438472E-04  0.998258
   0.693387  2.417005E-04  0.998264
   0.695391  2.399101E-04  0.998271
   0.697395  2.384101E-04  0.998277
   0.699399  2.371164E-04  0.998283
   0.701403  2.359462E-04  0.998288
   0.703407  2.348093E-04  0.998294
   0.705411  2.336219E-04  0.998299
   0.707415  2.323036E-04  0.998305
   0.709419  2.307873E-04  0.998311
   0.711423  2.290191E-04  0.998317
   0.713427  2.269600E-04  0.998324
   0.715431  2.245918E-04  0.998330
   0.717435  2.219135E-04  0.998337
   0.719439  2.189408E-04  0.998345
   0.721443  2.157088E-04  0.998352
   0.723447  2.122656E-04  0.998360
   0.725451  2.086679E-04  0.998367
   0.727455  2.049895E-04  0.998375
   0.729459  2.012985E-04  0.998383
   0.731463  1.976714E-04  0.998391
   0.733467  1.941741E-04  0.998398
   0.735471  1.908719E-04  0.998406
   0.737475  1.878192E-04  0.998413
   0.739479  1.850551E-04  0.998419
   0.741483  1.826051E-04  0.998426
   0.743487  1.804814E-04  0.998432
   0.745491  1.786792E-04  0.998438
   0.747495  1.771779E-04  0.998443
   0.749499  1.759446E-04  0.998448
   0.751503  1.749332E-04  0.998453
   0.753507  1.740906E-04  0.998458
   0.755511  1.733564E-04  0.998462
   0.757515  1.726675E-04  0.998467
   0.759519  1.719592E-04  0.998471
   0.761523  1.711753E-04  0.998476
   0.763527  1.702606E-04  0.998481
   0.765531  1.691736E-04  0.998485
   0.767535  1.678812E-04  0.998490
   0.769539  1.663637E-04  0.998496
   0.771543  1.646158E-04  0.998501
   0.773547  1.626435E-04  0.998507
   0.775551  1.604669E-04  0.998512
   0.777555  1.581157E-04  0.998518
   0.779559  1.556306E-04  0.998524
   0.781563  1.530590E-04  0.998531
   0.783567  1.504547E-04  0.998536
   0.785571  1.478680E-04  0.998543
   0.787575  1.453536E-04  0.998549
   0.789579  1.429594E-04  0.998555
   0.791583  1.407275E-04  0.998560
   0.793587  1.386942E-04  0.998566
   0.795591  1.368817E-04  0.998571
   0.797595  1.353048E-04  0.998576
   0.799599  1.339648E-04  0.998581
   0.801603  1.328526E-04  0.998585
   0.803607  1.319479E-04  0.998589
   0.805611  1.312214E-04  0.998594
   0.807615  1.306377E-04  0.998597
   0.809619  1.301521E-04  0.998601
   0.811623  1.297210E-04  0.998605
   0.813627  1.292954E-04  0.998609
   0.815631  1.288316E-04  0.998612
   0.817635  1.282872E-04  0.998616
   0.819639  1.276274E-04  0.998620
   0.821643  1.268229E-04  0.998624
   0.823647  1.258552E-04  0.998628
   0.825651  1.247141E-04  0.998632
   0.827655  1.234003E-04  0.998637
   0.829659  1.219234E-04  0.998641
   0.831663  1.203003E-04  0.998646
   0.833667  1.185595E-04  0.998651
   0.835671  1.167329E-04  0.998656
   0.837675  1.148586E-04  0.998661
   0.839679  1.129747E-04  0.998666
   0.841683  1.111221E-04  0.998671
   0.843687  1.093384E-04  0.998675
   0.845691  1.076597E-04  0.998680
   0.847695  1.061148E-04  0.998685
   0.849699  1.047251E-04  0.998689
   0.851703  1.035064E-04  0.998693
   0.853707  1.024650E-04  0.998697
   0.855711  1.015982E-04  0.998701
   0.857715  1.008959E-04  0.998704
   0.859719  1.003399E-04  0.998708
   0.861723  9.990510E-05  0.998711
   0.863727  9.956300E-05  0.998714
   0.865731  9.927843E-05  0.998718
   0.867736  9.901765E-05  0.998721
   0.869739  9.874548E-05  0.998724
   0.871744  9.842876E-05  0.998727
   0.873748  9.803743E-05  0.998730
   0.875751  9.754665E-05  0.998733
   0.877756  9.693831E-05  0.998737
   0.879760  9.619982E-05  0.998740
   0.881764  9.532798E-05  0.998744
   0.883768  9.432469E-05  0.998748
   0.885772  9.319974E-05  0.998751
   0.887776  9.197147E-05  0.998755
   0.889780  9.066096E-05  0.998759
   0.891784  8.929526E-05  0.998764
   0.893788  8.790255E-05  0.998768
   0.895792  8.651552E-05  0.998771
   0.897796  8.516164E-05  0.998775
   0.899800  8.387017E-05  0.998779
   0.901804  8.266753E-05  0.998783
   0.903808  8.157298E-05  0.998787
   0.905812  8.060200E-05  0.998791
   0.907816  7.976343E-05  0.998794
   0.909820  7.905983E-05  0.998797
   0.911824  7.848720E-05  0.998800
   0.913828  7.803590E-05  0.998803
   0.915832  7.768890E-05  0.998806
   0.917836  7.742699E-05  0.998809
   0.919840  7.722513E-05  0.998812
   0.921844  7.705710E-05  0.998814
   0.923848  7.689693E-05  0.998817
   0.925852  7.671768E-05  0.998820
   0.927856  7.649418E-05  0.998822
   0.929860  7.620482E-05  0.998825
   0.931864  7.583237E-05  0.998828
   0.933868  7.536359E-05  0.998831
   0.935872  7.479281E-05  0.998834
   0.937876  7.411469E-05  0.998837
   0.939880  7.333952E-05  0.998840
   0.941884  7.247272E-05  0.998843
   0.943888  7.152643E-05  0.998846
   0.945892  7.052661E-05  0.998850
   0.947896  6.948896E-05  0.998854
   0.949900  6.843756E-05  0.998857
   0.951904  6.739632E-05  0.998860
   0.953908  6.638970E-05  0.998864
   0.955912  6.543637E-05  0.998867
   0.957916  6.455641E-05  0.998870
   0.959920  6.376552E-05  0.998873
   0.961924  6.307341E-05  0.998876
   0.963928  6.248432E-05  0.998879
   0.965932  6.199983E-05  0.998882
   0.967936  6.161463E-05  0.998884
   0.969940  6.131941E-05  0.998887
   0.971944  6.110158E-05  0.998889
   0.973948  6.094345E-05  0.998892
   0.975952  6.082570E-05  0.998894
   0.977956  6.072829E-05  0.998896
   0.979960  6.062928E-05  0.998899
   0.981964  6.050824E-05  0.998901
   0.983968  6.034604E-05  0.998903
   0.985972  6.012761E-05  0.998906
   0.987976  5.984009E-05  0.998908
   0.989980  5.947448E-05  0.998911
   0.991984  5.902494E-05  0.998913
   0.993988  5.849535E-05  0.998916
   0.995992  5.788592E-05  0.998919
   0.997996  5.720784E-05  0.998922
   1.00000  5.647448E-05  0.998924
