 B4C 60.nm on Si at 5000.eV, P=0.
 Angle (deg), Reflectivity, Transmission into substrate
   0.000000  1.00000  0.000000
   2.004008E-03  0.999968  2.863448E-12
   4.008016E-03  0.999935  5.732188E-12
   6.012024E-03  0.999903  8.611591E-12
   8.016032E-03  0.999870  1.150706E-11
   1.002004E-02  0.999838  1.442415E-11
   1.202405E-02  0.999805  1.736832E-11
   1.402806E-02  0.999773  2.034526E-11
   1.603206E-02  0.999741  2.336073E-11
   1.803607E-02  0.999708  2.642053E-11
   2.004008E-02  0.999676  2.953077E-11
   2.204409E-02  0.999643  3.269754E-11
   2.404810E-02  0.999610  3.592737E-11
   2.605210E-02  0.999578  3.922676E-11
   2.805611E-02  0.999545  4.260246E-11
   3.006012E-02  0.999512  4.606176E-11
   3.206413E-02  0.999480  4.961192E-11
   3.406814E-02  0.999447  5.326083E-11
   3.607215E-02  0.999414  5.701615E-11
   3.807615E-02  0.999381  6.088666E-11
   4.008016E-02  0.999348  6.488091E-11
   4.208417E-02  0.999315  6.900849E-11
   4.408818E-02  0.999282  7.327896E-11
   4.609219E-02  0.999249  7.770259E-11
   4.809619E-02  0.999216  8.229020E-11
   5.010020E-02  0.999182  8.705338E-11
   5.210421E-02  0.999149  9.200417E-11
   5.410822E-02  0.999116  9.715564E-11
   5.611223E-02  0.999082  1.025208E-10
   5.811623E-02  0.999048  1.081146E-10
   6.012024E-02  0.999015  1.139523E-10
   6.212425E-02  0.998981  1.200502E-10
   6.412826E-02  0.998947  1.264257E-10
   6.613226E-02  0.998913  1.330968E-10
   6.813627E-02  0.998879  1.400839E-10
   7.014028E-02  0.998845  1.474077E-10
   7.214429E-02  0.998810  1.550908E-10
   7.414830E-02  0.998776  1.631570E-10
   7.615230E-02  0.998741  1.716321E-10
   7.815631E-02  0.998706  1.805433E-10
   8.016032E-02  0.998671  1.899209E-10
   8.216433E-02  0.998637  1.997953E-10
   8.416834E-02  0.998601  2.102009E-10
   8.617234E-02  0.998566  2.211740E-10
   8.817635E-02  0.998531  2.327536E-10
   9.018036E-02  0.998495  2.449815E-10
   9.218437E-02  0.998459  2.579021E-10
   9.418838E-02  0.998424  2.715653E-10
   9.619239E-02  0.998387  2.860224E-10
   9.819639E-02  0.998351  3.013294E-10
   0.100200  0.998315  3.175473E-10
   0.102204  0.998278  3.347416E-10
   0.104208  0.998242  3.529823E-10
   0.106212  0.998205  3.723466E-10
   0.108216  0.998167  3.929155E-10
   0.110220  0.998130  4.147794E-10
   0.112224  0.998093  4.380343E-10
   0.114228  0.998055  4.627846E-10
   0.116232  0.998017  4.891432E-10
   0.118236  0.997978  5.172325E-10
   0.120240  0.997940  5.471877E-10
   0.122244  0.997901  5.791513E-10
   0.124248  0.997862  6.132796E-10
   0.126253  0.997823  6.497477E-10
   0.128257  0.997783  6.887375E-10
   0.130261  0.997744  7.304545E-10
   0.132265  0.997704  7.751140E-10
   0.134269  0.997663  8.229633E-10
   0.136273  0.997623  8.742607E-10
   0.138277  0.997582  9.292924E-10
   0.140281  0.997541  9.883738E-10
   0.142285  0.997499  1.051846E-09
   0.144289  0.997457  1.120086E-09
   0.146293  0.997415  1.193503E-09
   0.148297  0.997373  1.272546E-09
   0.150301  0.997330  1.357707E-09
   0.152305  0.997287  1.449534E-09
   0.154309  0.997243  1.548619E-09
   0.156313  0.997199  1.655618E-09
   0.158317  0.997155  1.771254E-09
   0.160321  0.997110  1.896318E-09
   0.162325  0.997065  2.031685E-09
   0.164329  0.997019  2.178323E-09
   0.166333  0.996973  2.337301E-09
   0.168337  0.996927  2.509800E-09
   0.170341  0.996880  2.697122E-09
   0.172345  0.996832  2.900717E-09
   0.174349  0.996784  3.122183E-09
   0.176353  0.996736  3.363308E-09
   0.178357  0.996687  3.626062E-09
   0.180361  0.996638  3.912635E-09
   0.182365  0.996587  4.225489E-09
   0.184369  0.996537  4.567334E-09
   0.186373  0.996486  4.941218E-09
   0.188377  0.996434  5.350517E-09
   0.190381  0.996382  5.799044E-09
   0.192385  0.996329  6.291029E-09
   0.194389  0.996275  6.831206E-09
   0.196393  0.996220  7.424950E-09
   0.198397  0.996165  8.078209E-09
   0.200401  0.996110  8.797707E-09
   0.202405  0.996053  9.591018E-09
   0.204409  0.995996  1.046667E-08
   0.206413  0.995937  1.143428E-08
   0.208417  0.995878  1.250471E-08
   0.210421  0.995819  1.369026E-08
   0.212425  0.995758  1.500485E-08
   0.214429  0.995696  1.646425E-08
   0.216433  0.995634  1.808643E-08
   0.218437  0.995570  1.989173E-08
   0.220441  0.995506  2.190337E-08
   0.222445  0.995440  2.414792E-08
   0.224449  0.995373  2.665555E-08
   0.226453  0.995305  2.946090E-08
   0.228457  0.995236  3.260366E-08
   0.230461  0.995166  3.612930E-08
   0.232465  0.995094  4.009025E-08
   0.234469  0.995022  4.454662E-08
   0.236473  0.994947  4.956806E-08
   0.238477  0.994872  5.523487E-08
   0.240481  0.994794  6.164002E-08
   0.242485  0.994716  6.889125E-08
   0.244489  0.994635  7.711411E-08
   0.246493  0.994553  8.645415E-08
   0.248497  0.994470  9.708194E-08
   0.250501  0.994384  1.091963E-07
   0.252505  0.994296  1.230304E-07
   0.254509  0.994206  1.388579E-07
   0.256513  0.994115  1.570007E-07
   0.258517  0.994021  1.778384E-07
   0.260521  0.993924  2.018208E-07
   0.262525  0.993826  2.294788E-07
   0.264529  0.993724  2.614454E-07
   0.266533  0.993620  2.984745E-07
   0.268537  0.993513  3.414645E-07
   0.270541  0.993403  3.914928E-07
   0.272545  0.993290  4.498546E-07
   0.274549  0.993174  5.181074E-07
   0.276553  0.993053  5.981404E-07
   0.278557  0.992930  6.922326E-07
   0.280561  0.992802  8.031674E-07
   0.282565  0.992669  9.343401E-07
   0.284569  0.992533  1.089904E-06
   0.286573  0.992391  1.274971E-06
   0.288577  0.992244  1.495858E-06
   0.290581  0.992092  1.760387E-06
   0.292585  0.991934  2.078290E-06
   0.294589  0.991769  2.461760E-06
   0.296593  0.991597  2.926084E-06
   0.298597  0.991418  3.490579E-06
   0.300601  0.991231  4.179786E-06
   0.302605  0.991035  5.024930E-06
   0.304609  0.990829  6.066169E-06
   0.306613  0.990612  7.355314E-06
   0.308617  0.990385  8.959643E-06
   0.310621  0.990144  1.096718E-05
   0.312625  0.989889  1.349394E-05
   0.314629  0.989619  1.669380E-05
   0.316633  0.989331  2.077284E-05
   0.318637  0.989023  2.600913E-05
   0.320641  0.988692  3.278162E-05
   0.322645  0.988336  4.161229E-05
   0.324649  0.987951  5.322644E-05
   0.326653  0.987531  6.864586E-05
   0.328657  0.987070  8.932791E-05
   0.330661  0.986561  1.173779E-04
   0.332665  0.985994  1.558865E-04
   0.334669  0.985355  2.094658E-04
   0.336673  0.984626  2.851213E-04
   0.338677  0.983782  3.937164E-04
   0.340681  0.982787  5.524705E-04
   0.342685  0.981586  7.893468E-04
   0.344689  0.980097  1.151020E-03
   0.346693  0.978191  1.717725E-03
   0.348697  0.975653  2.631896E-03
   0.350701  0.972110  4.155096E-03
   0.352705  0.966900  6.783960E-03
   0.354709  0.958785  1.149024E-02
   0.356713  0.945402  2.021170E-02
   0.358717  0.922237  3.679924E-02
   0.360721  0.881045  6.855915E-02
   0.362725  0.808720  0.127626
   0.364729  0.691383  0.228004
   0.366733  0.532255  0.369878
   0.368737  0.372607  0.518728
   0.370741  0.266178  0.624720
   0.372745  0.225004  0.672734
   0.374750  0.224411  0.682232
   0.376754  0.238712  0.675918
   0.378758  0.253858  0.666979
   0.380762  0.264353  0.660989
   0.382766  0.268819  0.659657
   0.384770  0.267519  0.663053
   0.386774  0.261275  0.670629
   0.388778  0.251055  0.681635
   0.390782  0.237815  0.695280
   0.392786  0.222465  0.710786
   0.394790  0.205838  0.727419
   0.396794  0.188696  0.744501
   0.398798  0.171709  0.761421
   0.400802  0.155448  0.777655
   0.402806  0.140371  0.792780
   0.404810  0.126818  0.806473
   0.406814  0.115005  0.818529
   0.408818  0.105033  0.828847
   0.410822  9.689895E-02  0.837424
   0.412826  9.051070E-02  0.844337
   0.414830  8.571097E-02  0.849730
   0.416834  8.229727E-02  0.853787
   0.418838  8.004124E-02  0.856721
   0.420842  7.870673E-02  0.858749
   0.422846  7.806344E-02  0.860088
   0.424850  7.789687E-02  0.860941
   0.426854  7.801548E-02  0.861487
   0.428858  7.825414E-02  0.861884
   0.430862  7.847578E-02  0.862264
   0.432866  7.857110E-02  0.862732
   0.434870  7.845717E-02  0.863368
   0.436874  7.807532E-02  0.864231
   0.438878  7.738845E-02  0.865358
   0.440882  7.637842E-02  0.866770
   0.442886  7.504319E-02  0.868470
   0.444890  7.339426E-02  0.870451
   0.446894  7.145413E-02  0.872692
   0.448898  6.925399E-02  0.875166
   0.450902  6.683156E-02  0.877840
   0.452906  6.422921E-02  0.880674
   0.454910  6.149199E-02  0.883628
   0.456914  5.866628E-02  0.886657
   0.458918  5.579801E-02  0.889721
   0.460922  5.293172E-02  0.892777
   0.462926  5.010933E-02  0.895786
   0.464930  4.736903E-02  0.898712
   0.466934  4.474488E-02  0.901523
   0.468938  4.226581E-02  0.904192
   0.470942  3.995562E-02  0.906697
   0.472946  3.783263E-02  0.909018
   0.474950  3.590956E-02  0.911146
   0.476954  3.419361E-02  0.913072
   0.478958  3.268708E-02  0.914794
   0.480962  3.138721E-02  0.916315
   0.482966  3.028712E-02  0.917641
   0.484970  2.937605E-02  0.918782
   0.486974  2.864015E-02  0.919751
   0.488978  2.806299E-02  0.920563
   0.490982  2.762628E-02  0.921236
   0.492986  2.731040E-02  0.921789
   0.494990  2.709507E-02  0.922241
   0.496994  2.695985E-02  0.922611
   0.498998  2.688459E-02  0.922917
   0.501002  2.684996E-02  0.923180
   0.503006  2.683779E-02  0.923417
   0.505010  2.683121E-02  0.923643
   0.507014  2.681513E-02  0.923872
   0.509018  2.677627E-02  0.924119
   0.511022  2.670327E-02  0.924394
   0.513026  2.658680E-02  0.924705
   0.515030  2.641961E-02  0.925061
   0.517034  2.619637E-02  0.925466
   0.519038  2.591372E-02  0.925924
   0.521042  2.557011E-02  0.926437
   0.523046  2.516576E-02  0.927004
   0.525050  2.470237E-02  0.927625
   0.527054  2.418311E-02  0.928296
   0.529058  2.361235E-02  0.929014
   0.531062  2.299552E-02  0.929772
   0.533066  2.233883E-02  0.930567
   0.535070  2.164927E-02  0.931391
   0.537074  2.093420E-02  0.932237
   0.539078  2.020136E-02  0.933098
   0.541082  1.945853E-02  0.933967
   0.543086  1.871348E-02  0.934836
   0.545090  1.797377E-02  0.935698
   0.547094  1.724663E-02  0.936546
   0.549098  1.653877E-02  0.937375
   0.551102  1.585638E-02  0.938178
   0.553106  1.520497E-02  0.938949
   0.555110  1.458930E-02  0.939685
   0.557114  1.401329E-02  0.940382
   0.559118  1.348017E-02  0.941036
   0.561122  1.299219E-02  0.941645
   0.563126  1.255076E-02  0.942208
   0.565130  1.215659E-02  0.942724
   0.567134  1.180949E-02  0.943194
   0.569138  1.150852E-02  0.943618
   0.571142  1.125209E-02  0.943998
   0.573146  1.103799E-02  0.944336
   0.575150  1.086341E-02  0.944635
   0.577154  1.072510E-02  0.944897
   0.579158  1.061942E-02  0.945126
   0.581162  1.054242E-02  0.945326
   0.583166  1.048995E-02  0.945501
   0.585170  1.045773E-02  0.945655
   0.587174  1.044140E-02  0.945793
   0.589178  1.043666E-02  0.945917
   0.591182  1.043931E-02  0.946033
   0.593186  1.044530E-02  0.946144
   0.595190  1.045083E-02  0.946254
   0.597194  1.045239E-02  0.946367
   0.599198  1.044674E-02  0.946485
   0.601202  1.043105E-02  0.946611
   0.603206  1.040285E-02  0.946748
   0.605210  1.036009E-02  0.946897
   0.607214  1.030115E-02  0.947061
   0.609218  1.022479E-02  0.947240
   0.611222  1.013021E-02  0.947435
   0.613226  1.001704E-02  0.947648
   0.615230  9.885282E-03  0.947876
   0.617234  9.735308E-03  0.948122
   0.619238  9.567841E-03  0.948383
   0.621242  9.383935E-03  0.948659
   0.623246  9.184876E-03  0.948949
   0.625251  8.972280E-03  0.949250
   0.627255  8.747899E-03  0.949563
   0.629259  8.513676E-03  0.949883
   0.631263  8.271698E-03  0.950211
   0.633267  8.024095E-03  0.950543
   0.635271  7.773086E-03  0.950878
   0.637275  7.520893E-03  0.951213
   0.639279  7.269677E-03  0.951547
   0.641283  7.021558E-03  0.951876
   0.643287  6.778593E-03  0.952201
   0.645291  6.542614E-03  0.952518
   0.647295  6.315430E-03  0.952826
   0.649299  6.098558E-03  0.953123
   0.651303  5.893379E-03  0.953408
   0.653307  5.701075E-03  0.953681
   0.655311  5.522576E-03  0.953939
   0.657315  5.358626E-03  0.954183
   0.659319  5.209691E-03  0.954412
   0.661323  5.076043E-03  0.954626
   0.663327  4.957724E-03  0.954824
   0.665331  4.854564E-03  0.955007
   0.667335  4.766172E-03  0.955175
   0.669339  4.691993E-03  0.955329
   0.671343  4.631274E-03  0.955469
   0.673347  4.583117E-03  0.955597
   0.675351  4.546483E-03  0.955713
   0.677355  4.520223E-03  0.955818
   0.679359  4.503091E-03  0.955914
   0.681363  4.493775E-03  0.956002
   0.683367  4.490907E-03  0.956082
   0.685371  4.493100E-03  0.956158
   0.687375  4.498965E-03  0.956229
   0.689379  4.507124E-03  0.956297
   0.691383  4.516242E-03  0.956364
   0.693387  4.525030E-03  0.956430
   0.695391  4.532292E-03  0.956497
   0.697395  4.536896E-03  0.956567
   0.699399  4.537831E-03  0.956639
   0.701403  4.534180E-03  0.956715
   0.703407  4.525159E-03  0.956796
   0.705411  4.510104E-03  0.956882
   0.707415  4.488494E-03  0.956974
   0.709419  4.459930E-03  0.957071
   0.711423  4.424155E-03  0.957176
   0.713427  4.381043E-03  0.957287
   0.715431  4.330601E-03  0.957404
   0.717435  4.272955E-03  0.957529
   0.719439  4.208356E-03  0.957659
   0.721443  4.137171E-03  0.957795
   0.723447  4.059843E-03  0.957937
   0.725451  3.976930E-03  0.958084
   0.727455  3.889056E-03  0.958234
   0.729459  3.796918E-03  0.958389
   0.731463  3.701250E-03  0.958547
   0.733467  3.602863E-03  0.958707
   0.735471  3.502545E-03  0.958869
   0.737475  3.401132E-03  0.959031
   0.739479  3.299446E-03  0.959194
   0.741483  3.198326E-03  0.959355
   0.743487  3.098547E-03  0.959515
   0.745491  3.000877E-03  0.959672
   0.747495  2.906048E-03  0.959827
   0.749499  2.814706E-03  0.959978
   0.751503  2.727461E-03  0.960124
   0.753507  2.644844E-03  0.960266
   0.755511  2.567323E-03  0.960402
   0.757515  2.495276E-03  0.960533
   0.759519  2.429006E-03  0.960658
   0.761523  2.368743E-03  0.960777
   0.763527  2.314603E-03  0.960890
   0.765531  2.266652E-03  0.960996
   0.767535  2.224851E-03  0.961096
   0.769539  2.189101E-03  0.961191
   0.771543  2.159204E-03  0.961279
   0.773547  2.134919E-03  0.961361
   0.775551  2.115925E-03  0.961438
   0.777555  2.101845E-03  0.961510
   0.779559  2.092255E-03  0.961577
   0.781563  2.086684E-03  0.961640
   0.783567  2.084628E-03  0.961699
   0.785571  2.085559E-03  0.961756
   0.787575  2.088921E-03  0.961809
   0.789579  2.094157E-03  0.961860
   0.791583  2.100700E-03  0.961910
   0.793587  2.107995E-03  0.961959
   0.795591  2.115491E-03  0.962007
   0.797595  2.122665E-03  0.962056
   0.799599  2.129017E-03  0.962104
   0.801603  2.134082E-03  0.962154
   0.803607  2.137427E-03  0.962205
   0.805611  2.138671E-03  0.962258
   0.807615  2.137474E-03  0.962313
   0.809619  2.133541E-03  0.962370
   0.811623  2.126639E-03  0.962430
   0.813627  2.116585E-03  0.962493
   0.815631  2.103246E-03  0.962559
   0.817635  2.086551E-03  0.962627
   0.819639  2.066479E-03  0.962699
   0.821643  2.043060E-03  0.962773
   0.823647  2.016383E-03  0.962851
   0.825651  1.986573E-03  0.962931
   0.827655  1.953806E-03  0.963014
   0.829659  1.918300E-03  0.963100
   0.831663  1.880307E-03  0.963187
   0.833667  1.840108E-03  0.963277
   0.835671  1.798024E-03  0.963368
   0.837675  1.754382E-03  0.963461
   0.839679  1.709525E-03  0.963554
   0.841683  1.663826E-03  0.963648
   0.843687  1.617653E-03  0.963743
   0.845691  1.571371E-03  0.963837
   0.847695  1.525341E-03  0.963931
   0.849699  1.479923E-03  0.964024
   0.851703  1.435459E-03  0.964116
   0.853707  1.392268E-03  0.964207
   0.855711  1.350654E-03  0.964295
   0.857715  1.310889E-03  0.964382
   0.859719  1.273221E-03  0.964467
   0.861723  1.237873E-03  0.964549
   0.863727  1.205014E-03  0.964629
   0.865731  1.174799E-03  0.964706
   0.867736  1.147337E-03  0.964781
   0.869739  1.122702E-03  0.964852
   0.871744  1.100929E-03  0.964920
   0.873748  1.082018E-03  0.964986
   0.875751  1.065936E-03  0.965048
   0.877756  1.052612E-03  0.965108
   0.879760  1.041946E-03  0.965165
   0.881764  1.033806E-03  0.965219
   0.883768  1.028032E-03  0.965271
   0.885772  1.024442E-03  0.965320
   0.887776  1.022828E-03  0.965368
   0.889780  1.022967E-03  0.965413
   0.891784  1.024621E-03  0.965457
   0.893788  1.027535E-03  0.965500
   0.895792  1.031457E-03  0.965541
   0.897796  1.036117E-03  0.965582
   0.899800  1.041256E-03  0.965622
   0.901804  1.046615E-03  0.965661
   0.903808  1.051934E-03  0.965701
   0.905812  1.056972E-03  0.965740
   0.907816  1.061493E-03  0.965780
   0.909820  1.065283E-03  0.965821
   0.911824  1.068138E-03  0.965862
   0.913828  1.069882E-03  0.965904
   0.915832  1.070350E-03  0.965947
   0.917836  1.069410E-03  0.965991
   0.919840  1.066949E-03  0.966037
   0.921844  1.062878E-03  0.966084
   0.923848  1.057138E-03  0.966133
   0.925852  1.049692E-03  0.966183
   0.927856  1.040531E-03  0.966234
   0.929860  1.029667E-03  0.966288
   0.931864  1.017142E-03  0.966342
   0.933868  1.003014E-03  0.966398
   0.935872  9.873688E-04  0.966455
   0.937876  9.703058E-04  0.966514
   0.939880  9.519514E-04  0.966574
   0.941884  9.324359E-04  0.966635
   0.943888  9.119164E-04  0.966696
   0.945892  8.905482E-04  0.966759
   0.947896  8.685112E-04  0.966821
   0.949900  8.459732E-04  0.966884
   0.951904  8.231230E-04  0.966948
   0.953908  8.001399E-04  0.967011
   0.955912  7.772112E-04  0.967074
   0.957916  7.545104E-04  0.967137
   0.959920  7.322113E-04  0.967200
   0.961924  7.104843E-04  0.967262
   0.963928  6.894800E-04  0.967323
   0.965932  6.693447E-04  0.967382
   0.967936  6.502146E-04  0.967441
   0.969940  6.322001E-04  0.967499
   0.971944  6.154030E-04  0.967556
   0.973948  5.999071E-04  0.967611
   0.975952  5.857843E-04  0.967664
   0.977956  5.730799E-04  0.967717
   0.979960  5.618270E-04  0.967767
   0.981964  5.520342E-04  0.967817
   0.983968  5.436974E-04  0.967864
   0.985972  5.367962E-04  0.967910
   0.987976  5.312888E-04  0.967955
   0.989980  5.271212E-04  0.967998
   0.991984  5.242215E-04  0.968040
   0.993988  5.225067E-04  0.968081
   0.995992  5.218812E-04  0.968121
   0.997996  5.222379E-04  0.968159
   1.00000  5.234598E-04  0.968197
