 B4C 60.nm on Si at 9200.eV, P=0.
 Angle (deg), Reflectivity, Transmission into substrate
   0.000000  1.00000  0.000000
   2.004008E-03  0.999984  1.845287E-12
   4.008016E-03  0.999967  3.702254E-12
   6.012024E-03  0.999951  5.582741E-12
   8.016032E-03  0.999935  7.498840E-12
   1.002004E-02  0.999918  9.463073E-12
   1.202405E-02  0.999902  1.148847E-11
   1.402806E-02  0.999886  1.358878E-11
   1.603206E-02  0.999869  1.577857E-11
   1.803607E-02  0.999853  1.807354E-11
   2.004008E-02  0.999836  2.049051E-11
   2.204409E-02  0.999820  2.304783E-11
   2.404810E-02  0.999803  2.576553E-11
   2.605210E-02  0.999786  2.866564E-11
   2.805611E-02  0.999770  3.177235E-11
   3.006012E-02  0.999753  3.511258E-11
   3.206413E-02  0.999736  3.871641E-11
   3.406814E-02  0.999719  4.261712E-11
   3.607215E-02  0.999702  4.685235E-11
   3.807615E-02  0.999685  5.146401E-11
   4.008016E-02  0.999667  5.649979E-11
   4.208417E-02  0.999650  6.201319E-11
   4.408818E-02  0.999632  6.806489E-11
   4.609219E-02  0.999615  7.472396E-11
   4.809619E-02  0.999597  8.206900E-11
   5.010020E-02  0.999579  9.018915E-11
   5.210421E-02  0.999561  9.918726E-11
   5.410822E-02  0.999543  1.091804E-10
   5.611223E-02  0.999524  1.203030E-10
   5.811623E-02  0.999506  1.327103E-10
   6.012024E-02  0.999487  1.465809E-10
   6.212425E-02  0.999468  1.621212E-10
   6.412826E-02  0.999449  1.795704E-10
   6.613226E-02  0.999429  1.992058E-10
   6.813627E-02  0.999410  2.213512E-10
   7.014028E-02  0.999390  2.463828E-10
   7.214429E-02  0.999370  2.747416E-10
   7.414830E-02  0.999349  3.069435E-10
   7.615230E-02  0.999329  3.435944E-10
   7.815631E-02  0.999308  3.854086E-10
   8.016032E-02  0.999286  4.332308E-10
   8.216433E-02  0.999265  4.880590E-10
   8.416834E-02  0.999243  5.510752E-10
   8.617234E-02  0.999220  6.236943E-10
   8.817635E-02  0.999198  7.075975E-10
   9.018036E-02  0.999175  8.048056E-10
   9.218437E-02  0.999151  9.177354E-10
   9.418838E-02  0.999127  1.049308E-09
   9.619239E-02  0.999103  1.203049E-09
   9.819639E-02  0.999078  1.383231E-09
   0.100200  0.999053  1.595061E-09
   0.102204  0.999027  1.844887E-09
   0.104208  0.999000  2.140486E-09
   0.106212  0.998973  2.491435E-09
   0.108216  0.998945  2.909547E-09
   0.110220  0.998917  3.409458E-09
   0.112224  0.998887  4.009407E-09
   0.114228  0.998858  4.732177E-09
   0.116232  0.998827  5.606368E-09
   0.118236  0.998795  6.668056E-09
   0.120240  0.998762  7.962969E-09
   0.122244  0.998729  9.549359E-09
   0.124248  0.998694  1.150174E-08
   0.126253  0.998658  1.391611E-08
   0.128257  0.998621  1.691668E-08
   0.130261  0.998582  2.066516E-08
   0.132265  0.998543  2.537340E-08
   0.134269  0.998501  3.132086E-08
   0.136273  0.998458  3.887827E-08
   0.138277  0.998413  4.854173E-08
   0.140281  0.998366  6.097890E-08
   0.142285  0.998317  7.709684E-08
   0.144289  0.998265  9.813773E-08
   0.146293  0.998211  1.258167E-07
   0.148297  0.998154  1.625269E-07
   0.150301  0.998094  2.116397E-07
   0.152305  0.998030  2.779545E-07
   0.154309  0.997962  3.683888E-07
   0.156313  0.997889  4.930325E-07
   0.158317  0.997811  6.668031E-07
   0.160321  0.997728  9.120827E-07
   0.162325  0.997638  1.262998E-06
   0.164329  0.997540  1.772499E-06
   0.166333  0.997433  2.524328E-06
   0.168337  0.997314  3.653859E-06
   0.170341  0.997183  5.385150E-06
   0.172345  0.997035  8.099390E-06
   0.174349  0.996868  1.246547E-05
   0.176353  0.996674  1.969975E-05
   0.178357  0.996445  3.210960E-05
   0.180361  0.996167  5.429607E-05
   0.182365  0.995817  9.601378E-05
   0.184369  0.995350  1.795908E-04
   0.186373  0.994673  3.614843E-04
   0.188377  0.993553  8.052121E-04
   0.190381  0.991265  2.087688E-03
   0.192385  0.984661  6.982217E-03
   0.194389  0.952237  3.584408E-02
   0.196393  0.803479  0.178454
   0.198397  0.562654  0.415137
   0.200401  0.384956  0.592874
   0.202405  0.303802  0.676033
   0.204409  0.272761  0.709120
   0.206413  0.257360  0.726084
   0.208417  0.243707  0.740844
   0.210421  0.227858  0.757474
   0.212425  0.209627  0.776277
   0.214429  0.190073  0.796277
   0.216433  0.170511  0.816215
   0.218437  0.152109  0.834958
   0.220441  0.135710  0.851685
   0.222445  0.121774  0.865944
   0.224449  0.110411  0.877629
   0.226453  0.101449  0.886908
   0.228457  9.453255E-02  0.894136
   0.230461  8.921531E-02  0.899752
   0.232465  8.503911E-02  0.904213
   0.234469  8.158785E-02  0.907933
   0.236473  7.851924E-02  0.911251
   0.238477  7.557776E-02  0.914423
   0.240481  7.259414E-02  0.917620
   0.242485  6.947623E-02  0.920936
   0.244489  6.619561E-02  0.924399
   0.246493  6.277243E-02  0.927993
   0.248497  5.926003E-02  0.931666
   0.250501  5.573121E-02  0.935346
   0.252505  5.226594E-02  0.938956
   0.254509  4.894140E-02  0.942419
   0.256513  4.582463E-02  0.945670
   0.258517  4.296727E-02  0.948658
   0.260521  4.040273E-02  0.951349
   0.262525  3.814575E-02  0.953731
   0.264529  3.619321E-02  0.955804
   0.266533  3.452652E-02  0.957589
   0.268537  3.311513E-02  0.959116
   0.270541  3.191988E-02  0.960424
   0.272545  3.089706E-02  0.961556
   0.274549  3.000185E-02  0.962557
   0.276553  2.919133E-02  0.963470
   0.278557  2.842708E-02  0.964332
   0.280561  2.767682E-02  0.965177
   0.282565  2.691554E-02  0.966030
   0.284569  2.612599E-02  0.966908
   0.286573  2.529851E-02  0.967820
   0.288577  2.443045E-02  0.968769
   0.290581  2.352532E-02  0.969753
   0.292585  2.259159E-02  0.970763
   0.294589  2.164129E-02  0.971788
   0.296593  2.068878E-02  0.972812
   0.298597  1.974945E-02  0.973822
   0.300601  1.883827E-02  0.974801
   0.302605  1.796910E-02  0.975737
   0.304609  1.715361E-02  0.976618
   0.306613  1.640073E-02  0.977435
   0.308617  1.571630E-02  0.978183
   0.310621  1.510301E-02  0.978858
   0.312625  1.456031E-02  0.979461
   0.314629  1.408485E-02  0.979996
   0.316633  1.367076E-02  0.980469
   0.318637  1.331031E-02  0.980886
   0.320641  1.299431E-02  0.981259
   0.322645  1.271287E-02  0.981595
   0.324649  1.245596E-02  0.981905
   0.326653  1.221389E-02  0.982200
   0.328657  1.197782E-02  0.982487
   0.330661  1.174017E-02  0.982775
   0.332665  1.149484E-02  0.983069
   0.334669  1.123740E-02  0.983375
   0.336673  1.096519E-02  0.983694
   0.338677  1.067722E-02  0.984027
   0.340681  1.037410E-02  0.984375
   0.342685  1.005781E-02  0.984735
   0.344689  9.731528E-03  0.985104
   0.346693  9.399248E-03  0.985478
   0.348697  9.065505E-03  0.985853
   0.350701  8.735128E-03  0.986224
   0.352705  8.412851E-03  0.986586
   0.354709  8.103112E-03  0.986935
   0.356713  7.809789E-03  0.987266
   0.358717  7.536055E-03  0.987578
   0.360721  7.284194E-03  0.987867
   0.362725  7.055568E-03  0.988132
   0.364729  6.850603E-03  0.988374
   0.366733  6.668776E-03  0.988591
   0.368737  6.508729E-03  0.988786
   0.370741  6.368388E-03  0.988961
   0.372745  6.245075E-03  0.989119
   0.374750  6.135697E-03  0.989262
   0.376754  6.036917E-03  0.989394
   0.378758  5.945327E-03  0.989518
   0.380762  5.857595E-03  0.989638
   0.382766  5.770666E-03  0.989756
   0.384770  5.681823E-03  0.989876
   0.386774  5.588850E-03  0.989999
   0.388778  5.490062E-03  0.990128
   0.390782  5.384358E-03  0.990263
   0.392786  5.271249E-03  0.990405
   0.394790  5.150810E-03  0.990554
   0.396794  5.023652E-03  0.990709
   0.398798  4.890844E-03  0.990869
   0.400802  4.753849E-03  0.991033
   0.402806  4.614389E-03  0.991200
   0.404810  4.474377E-03  0.991366
   0.406814  4.335788E-03  0.991531
   0.408818  4.200541E-03  0.991692
   0.410822  4.070465E-03  0.991847
   0.412826  3.947137E-03  0.991996
   0.414830  3.831856E-03  0.992136
   0.416834  3.725609E-03  0.992266
   0.418838  3.628989E-03  0.992387
   0.420842  3.542221E-03  0.992498
   0.422846  3.465161E-03  0.992598
   0.424850  3.397308E-03  0.992690
   0.426854  3.337856E-03  0.992772
   0.428858  3.285738E-03  0.992847
   0.430862  3.239684E-03  0.992915
   0.432866  3.198296E-03  0.992979
   0.434870  3.160110E-03  0.993039
   0.436874  3.123664E-03  0.993097
   0.438878  3.087574E-03  0.993155
   0.440882  3.050576E-03  0.993213
   0.442886  3.011584E-03  0.993272
   0.444890  2.969739E-03  0.993335
   0.446894  2.924409E-03  0.993401
   0.448898  2.875232E-03  0.993470
   0.450902  2.822097E-03  0.993543
   0.452906  2.765151E-03  0.993619
   0.454910  2.704765E-03  0.993699
   0.456914  2.641507E-03  0.993781
   0.458918  2.576117E-03  0.993865
   0.460922  2.509452E-03  0.993950
   0.462926  2.442445E-03  0.994036
   0.464930  2.376045E-03  0.994121
   0.466934  2.311192E-03  0.994203
   0.468938  2.248768E-03  0.994283
   0.470942  2.189539E-03  0.994360
   0.472946  2.134159E-03  0.994433
   0.474950  2.083116E-03  0.994502
   0.476954  2.036721E-03  0.994565
   0.478958  1.995115E-03  0.994624
   0.480962  1.958252E-03  0.994677
   0.482966  1.925918E-03  0.994726
   0.484970  1.897745E-03  0.994771
   0.486974  1.873228E-03  0.994811
   0.488978  1.851758E-03  0.994849
   0.490982  1.832649E-03  0.994884
   0.492986  1.815172E-03  0.994917
   0.494990  1.798594E-03  0.994950
   0.496994  1.782199E-03  0.994981
   0.498998  1.765316E-03  0.995013
   0.501002  1.747367E-03  0.995047
   0.503006  1.727861E-03  0.995081
   0.505010  1.706426E-03  0.995117
   0.507014  1.682824E-03  0.995156
   0.509018  1.656942E-03  0.995196
   0.511022  1.628808E-03  0.995238
   0.513026  1.598551E-03  0.995283
   0.515030  1.566435E-03  0.995329
   0.517034  1.532815E-03  0.995377
   0.519038  1.498124E-03  0.995425
   0.521042  1.462828E-03  0.995474
   0.523046  1.427450E-03  0.995523
   0.525050  1.392511E-03  0.995571
   0.527054  1.358504E-03  0.995618
   0.529058  1.325914E-03  0.995664
   0.531062  1.295133E-03  0.995708
   0.533066  1.266489E-03  0.995750
   0.535070  1.240242E-03  0.995788
   0.537074  1.216542E-03  0.995825
   0.539078  1.195442E-03  0.995859
   0.541082  1.176907E-03  0.995890
   0.543086  1.160800E-03  0.995918
   0.545090  1.146910E-03  0.995944
   0.547094  1.134950E-03  0.995969
   0.549098  1.124572E-03  0.995991
   0.551102  1.115400E-03  0.996012
   0.553106  1.107015E-03  0.996032
   0.555110  1.099013E-03  0.996052
   0.557114  1.090994E-03  0.996072
   0.559118  1.082584E-03  0.996092
   0.561122  1.073453E-03  0.996112
   0.563126  1.063329E-03  0.996134
   0.565130  1.052004E-03  0.996157
   0.567134  1.039338E-03  0.996180
   0.569138  1.025268E-03  0.996205
   0.571142  1.009806E-03  0.996232
   0.573146  9.930270E-04  0.996259
   0.575150  9.750844E-04  0.996288
   0.577154  9.561728E-04  0.996317
   0.579158  9.365487E-04  0.996348
   0.581162  9.164848E-04  0.996378
   0.583166  8.962825E-04  0.996409
   0.585170  8.762564E-04  0.996439
   0.587174  8.567002E-04  0.996469
   0.589178  8.378961E-04  0.996498
   0.591182  8.200909E-04  0.996526
   0.593186  8.035048E-04  0.996553
   0.595190  7.882849E-04  0.996578
   0.597194  7.745482E-04  0.996601
   0.599198  7.623411E-04  0.996623
   0.601202  7.516575E-04  0.996644
   0.603206  7.424338E-04  0.996663
   0.605210  7.345590E-04  0.996680
   0.607214  7.278731E-04  0.996696
   0.609218  7.221802E-04  0.996712
   0.611222  7.172574E-04  0.996726
   0.613226  7.128631E-04  0.996739
   0.615230  7.087461E-04  0.996753
   0.617234  7.046607E-04  0.996766
   0.619238  7.003754E-04  0.996779
   0.621242  6.956771E-04  0.996793
   0.623246  6.903871E-04  0.996807
   0.625251  6.843599E-04  0.996822
   0.627255  6.774936E-04  0.996838
   0.629259  6.697272E-04  0.996854
   0.631263  6.610504E-04  0.996871
   0.633267  6.514881E-04  0.996890
   0.635271  6.411250E-04  0.996908
   0.637275  6.300593E-04  0.996928
   0.639279  6.184392E-04  0.996948
   0.641283  6.064276E-04  0.996968
   0.643287  5.942069E-04  0.996989
   0.645291  5.819742E-04  0.997010
   0.647295  5.699205E-04  0.997030
   0.649299  5.582243E-04  0.997049
   0.651303  5.470638E-04  0.997069
   0.653307  5.365821E-04  0.997087
   0.655311  5.269034E-04  0.997105
   0.657315  5.181155E-04  0.997122
   0.659319  5.102697E-04  0.997137
   0.661323  5.033890E-04  0.997152
   0.663327  4.974537E-04  0.997165
   0.665331  4.924144E-04  0.997178
   0.667335  4.881852E-04  0.997190
   0.669339  4.846604E-04  0.997201
   0.671343  4.817074E-04  0.997212
   0.673347  4.791769E-04  0.997222
   0.675351  4.769157E-04  0.997232
   0.677355  4.747589E-04  0.997241
   0.679359  4.725543E-04  0.997250
   0.681363  4.701549E-04  0.997260
   0.683367  4.674279E-04  0.997270
   0.685371  4.642658E-04  0.997281
   0.687375  4.605792E-04  0.997291
   0.689379  4.563119E-04  0.997303
   0.691383  4.514326E-04  0.997315
   0.693387  4.459375E-04  0.997327
   0.695391  4.398574E-04  0.997340
   0.697395  4.332455E-04  0.997354
   0.699399  4.261804E-04  0.997367
   0.701403  4.187582E-04  0.997382
   0.703407  4.110862E-04  0.997396
   0.705411  4.032917E-04  0.997411
   0.707415  3.955005E-04  0.997425
   0.709419  3.878412E-04  0.997440
   0.711423  3.804351E-04  0.997454
   0.713427  3.733897E-04  0.997467
   0.715431  3.668022E-04  0.997480
   0.717435  3.607514E-04  0.997493
   0.719439  3.552934E-04  0.997505
   0.721443  3.504606E-04  0.997516
   0.723447  3.462641E-04  0.997526
   0.725451  3.426895E-04  0.997536
   0.727455  3.396998E-04  0.997545
   0.729459  3.372385E-04  0.997554
   0.731463  3.352321E-04  0.997563
   0.733467  3.335892E-04  0.997570
   0.735471  3.322121E-04  0.997578
   0.737475  3.309963E-04  0.997585
   0.739479  3.298334E-04  0.997592
   0.741483  3.286178E-04  0.997600
   0.743487  3.272529E-04  0.997607
   0.745491  3.256506E-04  0.997615
   0.747495  3.237365E-04  0.997622
   0.749499  3.214534E-04  0.997631
   0.751503  3.187627E-04  0.997639
   0.753507  3.156427E-04  0.997648
   0.755511  3.120958E-04  0.997657
   0.757515  3.081384E-04  0.997667
   0.759519  3.038091E-04  0.997677
   0.761523  2.991605E-04  0.997688
   0.763527  2.942573E-04  0.997698
   0.765531  2.891799E-04  0.997709
   0.767535  2.840082E-04  0.997719
   0.769539  2.788301E-04  0.997730
   0.771543  2.737367E-04  0.997741
   0.773547  2.688071E-04  0.997751
   0.775551  2.641218E-04  0.997761
   0.777555  2.597449E-04  0.997771
   0.779559  2.557329E-04  0.997780
   0.781563  2.521240E-04  0.997790
   0.783567  2.489440E-04  0.997798
   0.785571  2.462013E-04  0.997806
   0.787575  2.438865E-04  0.997814
   0.789579  2.419764E-04  0.997821
   0.791583  2.404334E-04  0.997828
   0.793587  2.392063E-04  0.997834
   0.795591  2.382352E-04  0.997840
   0.797595  2.374509E-04  0.997846
   0.799599  2.367790E-04  0.997852
   0.801603  2.361472E-04  0.997857
   0.803607  2.354809E-04  0.997863
   0.805611  2.347110E-04  0.997869
   0.807615  2.337757E-04  0.997875
   0.809619  2.326208E-04  0.997881
   0.811623  2.312039E-04  0.997887
   0.813627  2.294975E-04  0.997894
   0.815631  2.274836E-04  0.997901
   0.817635  2.251605E-04  0.997908
   0.819639  2.225402E-04  0.997916
   0.821643  2.196466E-04  0.997923
   0.823647  2.165141E-04  0.997931
   0.825651  2.131895E-04  0.997939
   0.827655  2.097269E-04  0.997948
   0.829659  2.061821E-04  0.997956
   0.831663  2.026202E-04  0.997964
   0.833667  1.990985E-04  0.997972
   0.835671  1.956838E-04  0.997980
   0.837675  1.924283E-04  0.997988
   0.839679  1.893809E-04  0.997996
   0.841683  1.865833E-04  0.998003
   0.843687  1.840676E-04  0.998010
   0.845691  1.818529E-04  0.998017
   0.847695  1.799476E-04  0.998023
   0.849699  1.783488E-04  0.998029
   0.851703  1.770429E-04  0.998035
   0.853707  1.760049E-04  0.998040
   0.855711  1.751996E-04  0.998046
   0.857715  1.745867E-04  0.998051
   0.859719  1.741169E-04  0.998055
   0.861723  1.737391E-04  0.998060
   0.863727  1.733999E-04  0.998065
   0.865731  1.730460E-04  0.998069
   0.867736  1.726264E-04  0.998074
   0.869739  1.720939E-04  0.998079
   0.871744  1.714093E-04  0.998084
   0.873748  1.705391E-04  0.998089
   0.875751  1.694601E-04  0.998094
   0.877756  1.681570E-04  0.998100
   0.879760  1.666246E-04  0.998105
   0.881764  1.648711E-04  0.998111
   0.883768  1.629077E-04  0.998117
   0.885772  1.607613E-04  0.998124
   0.887776  1.584609E-04  0.998130
   0.889780  1.560428E-04  0.998136
   0.891784  1.535504E-04  0.998143
   0.893788  1.510283E-04  0.998149
   0.895792  1.485206E-04  0.998156
   0.897796  1.460740E-04  0.998162
   0.899800  1.437295E-04  0.998168
   0.901804  1.415244E-04  0.998175
   0.903808  1.394929E-04  0.998181
   0.905812  1.376579E-04  0.998186
   0.907816  1.360390E-04  0.998192
   0.909820  1.346450E-04  0.998197
   0.911824  1.334761E-04  0.998202
   0.913828  1.325260E-04  0.998207
   0.915832  1.317782E-04  0.998212
   0.917836  1.312104E-04  0.998216
   0.919840  1.307939E-04  0.998220
   0.921844  1.304949E-04  0.998224
   0.923848  1.302762E-04  0.998228
   0.925852  1.300985E-04  0.998232
   0.927856  1.299226E-04  0.998236
   0.929860  1.297095E-04  0.998240
   0.931864  1.294235E-04  0.998243
   0.933868  1.290325E-04  0.998248
   0.935872  1.285107E-04  0.998252
   0.937876  1.278391E-04  0.998256
   0.939880  1.270000E-04  0.998260
   0.941884  1.259912E-04  0.998265
   0.943888  1.248124E-04  0.998270
   0.945892  1.234703E-04  0.998275
   0.947896  1.219802E-04  0.998280
   0.949900  1.203648E-04  0.998285
   0.951904  1.186491E-04  0.998290
   0.953908  1.168607E-04  0.998295
   0.955912  1.150355E-04  0.998301
   0.957916  1.132054E-04  0.998306
   0.959920  1.114064E-04  0.998311
   0.961924  1.096707E-04  0.998316
   0.963928  1.080247E-04  0.998321
   0.965932  1.064979E-04  0.998326
   0.967936  1.051112E-04  0.998331
   0.969940  1.038793E-04  0.998336
   0.971944  1.028133E-04  0.998340
   0.973948  1.019168E-04  0.998344
   0.975952  1.011866E-04  0.998348
   0.977956  1.006137E-04  0.998352
   0.979960  1.001832E-04  0.998356
   0.981964  9.987714E-05  0.998360
   0.983968  9.966900E-05  0.998363
   0.985972  9.953494E-05  0.998366
   0.987976  9.944388E-05  0.998370
   0.989980  9.936699E-05  0.998373
   0.991984  9.927368E-05  0.998376
   0.993988  9.913689E-05  0.998380
   0.995992  9.893002E-05  0.998383
   0.997996  9.863205E-05  0.998386
   1.00000  9.822514E-05  0.998390
