 B4C 60.nm on Si at 11000.eV, P=0.
 Angle (deg), Reflectivity, Transmission into substrate
   0.000000  1.00000  0.000000
   2.004008E-03  0.999986  1.578105E-12
   4.008016E-03  0.999972  3.170523E-12
   6.012024E-03  0.999959  4.791826E-12
   8.016032E-03  0.999945  6.457036E-12
   1.002004E-02  0.999931  8.181894E-12
   1.202405E-02  0.999917  9.983095E-12
   1.402806E-02  0.999903  1.187861E-11
   1.603206E-02  0.999889  1.388796E-11
   1.803607E-02  0.999875  1.603261E-11
   2.004008E-02  0.999861  1.833637E-11
   2.204409E-02  0.999847  2.082572E-11
   2.404810E-02  0.999833  2.353069E-11
   2.605210E-02  0.999818  2.648504E-11
   2.805611E-02  0.999804  2.972723E-11
   3.006012E-02  0.999789  3.330144E-11
   3.206413E-02  0.999775  3.725826E-11
   3.406814E-02  0.999760  4.165605E-11
   3.607215E-02  0.999745  4.656243E-11
   3.807615E-02  0.999730  5.205595E-11
   4.008016E-02  0.999715  5.822814E-11
   4.208417E-02  0.999700  6.518622E-11
   4.408818E-02  0.999685  7.305583E-11
   4.609219E-02  0.999669  8.198484E-11
   4.809619E-02  0.999653  9.214800E-11
   5.010020E-02  0.999638  1.037523E-10
   5.210421E-02  0.999621  1.170435E-10
   5.410822E-02  0.999605  1.323146E-10
   5.611223E-02  0.999589  1.499162E-10
   5.811623E-02  0.999572  1.702683E-10
   6.012024E-02  0.999555  1.938771E-10
   6.212425E-02  0.999538  2.213542E-10
   6.412826E-02  0.999520  2.534398E-10
   6.613226E-02  0.999502  2.910359E-10
   6.813627E-02  0.999484  3.352437E-10
   7.014028E-02  0.999465  3.874110E-10
   7.214429E-02  0.999446  4.491973E-10
   7.414830E-02  0.999427  5.226569E-10
   7.615230E-02  0.999407  6.103322E-10
   7.815631E-02  0.999387  7.153964E-10
   8.016032E-02  0.999367  8.418213E-10
   8.216433E-02  0.999346  9.945997E-10
   8.416834E-02  0.999324  1.180041E-09
   8.617234E-02  0.999302  1.406162E-09
   8.817635E-02  0.999279  1.683197E-09
   9.018036E-02  0.999256  2.024284E-09
   9.218437E-02  0.999232  2.446369E-09
   9.418838E-02  0.999207  2.971478E-09
   9.619239E-02  0.999181  3.628368E-09
   9.819639E-02  0.999155  4.454836E-09
   0.100200  0.999127  5.500942E-09
   0.102204  0.999099  6.833404E-09
   0.104208  0.999069  8.541725E-09
   0.106212  0.999038  1.074713E-08
   0.108216  0.999006  1.361488E-08
   0.110220  0.998973  1.737236E-08
   0.112224  0.998938  2.233528E-08
   0.114228  0.998901  2.894623E-08
   0.116232  0.998862  3.783174E-08
   0.118236  0.998822  4.988899E-08
   0.120240  0.998779  6.641727E-08
   0.122244  0.998733  8.932168E-08
   0.124248  0.998685  1.214337E-07
   0.126253  0.998633  1.670228E-07
   0.128257  0.998577  2.326281E-07
   0.130261  0.998517  3.284376E-07
   0.132265  0.998452  4.706227E-07
   0.134269  0.998381  6.853962E-07
   0.136273  0.998303  1.016212E-06
   0.138277  0.998216  1.536999E-06
   0.140281  0.998120  2.377196E-06
   0.142285  0.998010  3.771090E-06
   0.144289  0.997885  6.159136E-06
   0.146293  0.997738  1.040734E-05
   0.148297  0.997562  1.831189E-05
   0.150301  0.997344  3.385026E-05
   0.152305  0.997059  6.658601E-05
   0.154309  0.996658  1.421438E-04
   0.156313  0.996013  3.403224E-04
   0.158317  0.994710  9.733192E-04
   0.160321  0.990642  3.864840E-03
   0.162325  0.958982  3.270677E-02
   0.164329  0.770025  0.217121
   0.166333  0.520033  0.464848
   0.168337  0.354272  0.630989
   0.170341  0.281443  0.705218
   0.172345  0.252014  0.735964
   0.174349  0.234630  0.754325
   0.176353  0.217736  0.771908
   0.178357  0.198734  0.791403
   0.180361  0.178245  0.812267
   0.182365  0.157776  0.833047
   0.184369  0.138780  0.852322
   0.186373  0.122275  0.869092
   0.188377  0.108733  0.882893
   0.190381  9.813315E-02  0.893746
   0.192385  9.010080E-02  0.902025
   0.194389  8.406895E-02  0.908293
   0.196393  7.942423E-02  0.913161
   0.198397  7.560977E-02  0.917183
   0.200401  7.218325E-02  0.920801
   0.202405  6.883757E-02  0.924322
   0.204409  6.539633E-02  0.927924
   0.206413  6.179366E-02  0.931675
   0.208417  5.804740E-02  0.935558
   0.210421  5.423108E-02  0.939502
   0.212425  5.044727E-02  0.943406
   0.214429  4.680537E-02  0.947163
   0.216433  4.340394E-02  0.950674
   0.218437  4.031918E-02  0.953865
   0.220441  3.759791E-02  0.956689
   0.222445  3.525616E-02  0.959130
   0.224449  3.328130E-02  0.961202
   0.226453  3.163734E-02  0.962940
   0.228457  3.027148E-02  0.964397
   0.230461  2.912180E-02  0.965635
   0.232465  2.812410E-02  0.966717
   0.234469  2.721806E-02  0.967704
   0.236473  2.635178E-02  0.968649
   0.238477  2.548485E-02  0.969591
   0.240481  2.458982E-02  0.970557
   0.242485  2.365220E-02  0.971563
   0.244489  2.266951E-02  0.972612
   0.246493  2.164922E-02  0.973696
   0.248497  2.060633E-02  0.974800
   0.250501  1.956079E-02  0.975904
   0.252505  1.853451E-02  0.976988
   0.254509  1.754915E-02  0.978029
   0.256513  1.662381E-02  0.979008
   0.258517  1.577359E-02  0.979912
   0.260521  1.500843E-02  0.980728
   0.262525  1.433282E-02  0.981455
   0.264529  1.374574E-02  0.982091
   0.266533  1.324128E-02  0.982644
   0.268537  1.280953E-02  0.983123
   0.270541  1.243771E-02  0.983541
   0.272545  1.211137E-02  0.983912
   0.274549  1.181568E-02  0.984252
   0.276553  1.153650E-02  0.984574
   0.278557  1.126137E-02  0.984891
   0.280561  1.098022E-02  0.985212
   0.282565  1.068578E-02  0.985546
   0.284569  1.037392E-02  0.985896
   0.286573  1.004338E-02  0.986264
   0.288577  9.695708E-03  0.986648
   0.290581  9.334755E-03  0.987044
   0.292585  8.966029E-03  0.987448
   0.294589  8.596175E-03  0.987852
   0.296593  8.232305E-03  0.988249
   0.298597  7.881361E-03  0.988632
   0.300601  7.549562E-03  0.988996
   0.302605  7.241971E-03  0.989334
   0.304609  6.962218E-03  0.989645
   0.306613  6.712244E-03  0.989925
   0.308617  6.492342E-03  0.990175
   0.310621  6.301196E-03  0.990395
   0.312625  6.136075E-03  0.990589
   0.314629  5.993130E-03  0.990760
   0.316633  5.867742E-03  0.990913
   0.318637  5.754869E-03  0.991053
   0.320641  5.649403E-03  0.991185
   0.322645  5.546550E-03  0.991314
   0.324649  5.442106E-03  0.991444
   0.326653  5.332677E-03  0.991579
   0.328657  5.215847E-03  0.991720
   0.330661  5.090264E-03  0.991870
   0.332665  4.955634E-03  0.992028
   0.334669  4.812627E-03  0.992194
   0.336673  4.662789E-03  0.992367
   0.338677  4.508372E-03  0.992544
   0.340681  4.352034E-03  0.992722
   0.342685  4.196708E-03  0.992899
   0.344689  4.045343E-03  0.993072
   0.346693  3.900660E-03  0.993238
   0.348697  3.765038E-03  0.993394
   0.350701  3.640292E-03  0.993539
   0.352705  3.527645E-03  0.993672
   0.354709  3.427627E-03  0.993792
   0.356713  3.340102E-03  0.993899
   0.358717  3.264291E-03  0.993994
   0.360721  3.198883E-03  0.994079
   0.362725  3.142111E-03  0.994154
   0.364729  3.091928E-03  0.994223
   0.366733  3.046126E-03  0.994287
   0.368737  3.002494E-03  0.994348
   0.370741  2.958962E-03  0.994410
   0.372745  2.913712E-03  0.994472
   0.374750  2.865280E-03  0.994537
   0.376754  2.812634E-03  0.994607
   0.378758  2.755201E-03  0.994681
   0.380762  2.692872E-03  0.994760
   0.382766  2.625987E-03  0.994843
   0.384770  2.555287E-03  0.994929
   0.386774  2.481813E-03  0.995018
   0.388778  2.406872E-03  0.995109
   0.390782  2.331851E-03  0.995199
   0.392786  2.258213E-03  0.995288
   0.394790  2.187339E-03  0.995374
   0.396794  2.120453E-03  0.995455
   0.398798  2.058552E-03  0.995532
   0.400802  2.002351E-03  0.995602
   0.402806  1.952247E-03  0.995666
   0.404810  1.908318E-03  0.995724
   0.406814  1.870313E-03  0.995776
   0.408818  1.837694E-03  0.995823
   0.410822  1.809688E-03  0.995864
   0.412826  1.785323E-03  0.995901
   0.414830  1.763528E-03  0.995937
   0.416834  1.743172E-03  0.995970
   0.418838  1.723155E-03  0.996003
   0.420842  1.702470E-03  0.996036
   0.422846  1.680252E-03  0.996071
   0.424850  1.655836E-03  0.996108
   0.426854  1.628771E-03  0.996147
   0.428858  1.598853E-03  0.996189
   0.430862  1.566109E-03  0.996234
   0.432866  1.530797E-03  0.996281
   0.434870  1.493364E-03  0.996330
   0.436874  1.454419E-03  0.996380
   0.438878  1.414686E-03  0.996432
   0.440882  1.374943E-03  0.996482
   0.442886  1.335982E-03  0.996532
   0.444890  1.298554E-03  0.996581
   0.446894  1.263316E-03  0.996627
   0.448898  1.230807E-03  0.996670
   0.450902  1.201412E-03  0.996710
   0.452906  1.175344E-03  0.996747
   0.454910  1.152635E-03  0.996780
   0.456914  1.133149E-03  0.996810
   0.458918  1.116587E-03  0.996837
   0.460922  1.102520E-03  0.996861
   0.462926  1.090410E-03  0.996883
   0.464930  1.079655E-03  0.996904
   0.466934  1.069627E-03  0.996924
   0.468938  1.059699E-03  0.996944
   0.470942  1.049300E-03  0.996964
   0.472946  1.037931E-03  0.996985
   0.474950  1.025201E-03  0.997007
   0.476954  1.010838E-03  0.997030
   0.478958  9.947123E-04  0.997056
   0.480962  9.768200E-04  0.997083
   0.482966  9.572851E-04  0.997111
   0.484970  9.363682E-04  0.997141
   0.486974  9.144036E-04  0.997172
   0.488978  8.917984E-04  0.997203
   0.490982  8.690291E-04  0.997235
   0.492986  8.465503E-04  0.997266
   0.494990  8.248232E-04  0.997296
   0.496994  8.042560E-04  0.997325
   0.498998  7.851984E-04  0.997353
   0.501002  7.679096E-04  0.997378
   0.503006  7.525524E-04  0.997402
   0.505010  7.391867E-04  0.997423
   0.507014  7.277624E-04  0.997443
   0.509018  7.181415E-04  0.997461
   0.511022  7.100886E-04  0.997477
   0.513026  7.033068E-04  0.997491
   0.515030  6.974442E-04  0.997505
   0.517034  6.921237E-04  0.997518
   0.519038  6.869627E-04  0.997531
   0.521042  6.815972E-04  0.997544
   0.523046  6.756982E-04  0.997557
   0.525050  6.689985E-04  0.997571
   0.527054  6.612966E-04  0.997586
   0.529058  6.524705E-04  0.997603
   0.531062  6.424839E-04  0.997620
   0.533066  6.313766E-04  0.997638
   0.535070  6.192729E-04  0.997657
   0.537074  6.063515E-04  0.997677
   0.539078  5.928544E-04  0.997698
   0.541082  5.790577E-04  0.997718
   0.543086  5.652586E-04  0.997739
   0.545090  5.517474E-04  0.997759
   0.547094  5.388068E-04  0.997779
   0.549098  5.266776E-04  0.997798
   0.551102  5.155645E-04  0.997816
   0.553106  5.056082E-04  0.997832
   0.555110  4.968863E-04  0.997848
   0.557114  4.894121E-04  0.997862
   0.559118  4.831368E-04  0.997874
   0.561122  4.779468E-04  0.997886
   0.563126  4.736764E-04  0.997897
   0.565130  4.701238E-04  0.997906
   0.567134  4.670575E-04  0.997916
   0.569138  4.642303E-04  0.997925
   0.571142  4.613994E-04  0.997934
   0.573146  4.583363E-04  0.997943
   0.575150  4.548388E-04  0.997952
   0.577154  4.507454E-04  0.997963
   0.579158  4.459403E-04  0.997973
   0.581162  4.403597E-04  0.997985
   0.583166  4.339930E-04  0.997997
   0.585170  4.268817E-04  0.998010
   0.587174  4.191178E-04  0.998023
   0.589178  4.108317E-04  0.998038
   0.591182  4.021900E-04  0.998052
   0.593186  3.933749E-04  0.998066
   0.595190  3.845852E-04  0.998081
   0.597194  3.760187E-04  0.998095
   0.599198  3.678492E-04  0.998108
   0.601202  3.602424E-04  0.998121
   0.603206  3.533197E-04  0.998134
   0.605210  3.471726E-04  0.998145
   0.607214  3.418461E-04  0.998156
   0.609218  3.373426E-04  0.998166
   0.611222  3.336198E-04  0.998175
   0.613226  3.306009E-04  0.998183
   0.615230  3.281680E-04  0.998191
   0.617234  3.261858E-04  0.998198
   0.619238  3.244941E-04  0.998205
   0.621242  3.229279E-04  0.998212
   0.623246  3.213247E-04  0.998218
   0.625251  3.195289E-04  0.998225
   0.627255  3.174119E-04  0.998232
   0.629259  3.148626E-04  0.998239
   0.631263  3.118073E-04  0.998247
   0.633267  3.082049E-04  0.998256
   0.635271  3.040516E-04  0.998265
   0.637275  2.993816E-04  0.998274
   0.639279  2.942573E-04  0.998284
   0.641283  2.887697E-04  0.998294
   0.643287  2.830341E-04  0.998305
   0.645291  2.771751E-04  0.998316
   0.647295  2.713360E-04  0.998326
   0.649299  2.656442E-04  0.998336
   0.651303  2.602262E-04  0.998346
   0.653307  2.551925E-04  0.998356
   0.655311  2.506287E-04  0.998365
   0.657315  2.465981E-04  0.998373
   0.659319  2.431326E-04  0.998381
   0.661323  2.402312E-04  0.998389
   0.663327  2.378691E-04  0.998395
   0.665331  2.359897E-04  0.998402
   0.667335  2.345142E-04  0.998407
   0.669339  2.333470E-04  0.998413
   0.671343  2.323777E-04  0.998418
   0.673347  2.314908E-04  0.998423
   0.675351  2.305733E-04  0.998429
   0.677355  2.295153E-04  0.998434
   0.679359  2.282250E-04  0.998439
   0.681363  2.266243E-04  0.998445
   0.683367  2.246617E-04  0.998451
   0.685371  2.223053E-04  0.998457
   0.687375  2.195511E-04  0.998464
   0.689379  2.164203E-04  0.998472
   0.691383  2.129557E-04  0.998479
   0.693387  2.092221E-04  0.998487
   0.695391  2.052998E-04  0.998495
   0.697395  2.012791E-04  0.998503
   0.699399  1.972559E-04  0.998511
   0.701403  1.933238E-04  0.998519
   0.703407  1.895772E-04  0.998526
   0.705411  1.860925E-04  0.998533
   0.707415  1.829348E-04  0.998540
   0.709419  1.801513E-04  0.998547
   0.711423  1.777666E-04  0.998553
   0.713427  1.757850E-04  0.998559
   0.715431  1.741900E-04  0.998564
   0.717435  1.729444E-04  0.998569
   0.719439  1.719923E-04  0.998574
   0.721443  1.712697E-04  0.998578
   0.723447  1.706964E-04  0.998583
   0.725451  1.701901E-04  0.998586
   0.727455  1.696680E-04  0.998591
   0.729459  1.690516E-04  0.998595
   0.731463  1.682714E-04  0.998599
   0.733467  1.672704E-04  0.998604
   0.735471  1.660057E-04  0.998609
   0.737475  1.644518E-04  0.998614
   0.739479  1.626044E-04  0.998619
   0.741483  1.604741E-04  0.998625
   0.743487  1.580888E-04  0.998630
   0.745491  1.554952E-04  0.998636
   0.747495  1.527488E-04  0.998643
   0.749499  1.499117E-04  0.998649
   0.751503  1.470581E-04  0.998655
   0.753507  1.442542E-04  0.998661
   0.755511  1.415703E-04  0.998667
   0.757515  1.390643E-04  0.998673
   0.759519  1.367882E-04  0.998679
   0.761523  1.347776E-04  0.998684
   0.763527  1.330559E-04  0.998689
   0.765531  1.316299E-04  0.998693
   0.767535  1.304899E-04  0.998698
   0.769539  1.296127E-04  0.998702
   0.771543  1.289607E-04  0.998706
   0.773547  1.284877E-04  0.998709
   0.775551  1.281357E-04  0.998713
   0.777555  1.278465E-04  0.998716
   0.779559  1.275575E-04  0.998720
   0.781563  1.272093E-04  0.998723
   0.783567  1.267483E-04  0.998726
   0.785571  1.261304E-04  0.998730
   0.787575  1.253192E-04  0.998734
   0.789579  1.242958E-04  0.998738
   0.791583  1.230499E-04  0.998743
   0.793587  1.215862E-04  0.998747
   0.795591  1.199233E-04  0.998751
   0.797595  1.180926E-04  0.998756
   0.799599  1.161323E-04  0.998761
   0.801603  1.140888E-04  0.998766
   0.803607  1.120147E-04  0.998771
   0.805611  1.099634E-04  0.998776
   0.807615  1.079838E-04  0.998781
   0.809619  1.061247E-04  0.998786
   0.811623  1.044269E-04  0.998790
   0.813627  1.029202E-04  0.998795
   0.815631  1.016250E-04  0.998799
   0.817635  1.005505E-04  0.998802
   0.819639  9.969337E-05  0.998806
   0.821643  9.903956E-05  0.998810
   0.823647  9.856424E-05  0.998813
   0.825651  9.823384E-05  0.998816
   0.827655  9.800751E-05  0.998819
   0.829659  9.784159E-05  0.998822
   0.831663  9.768840E-05  0.998825
   0.833667  9.750339E-05  0.998827
   0.835671  9.724394E-05  0.998830
   0.837675  9.687326E-05  0.998833
   0.839679  9.636274E-05  0.998837
   0.841683  9.569189E-05  0.998840
   0.843687  9.485297E-05  0.998843
   0.845691  9.384286E-05  0.998847
   0.847695  9.267591E-05  0.998851
   0.849699  9.136778E-05  0.998855
   0.851703  8.994992E-05  0.998859
   0.853707  8.845379E-05  0.998863
   0.855711  8.691891E-05  0.998867
   0.857715  8.538568E-05  0.998871
   0.859719  8.389354E-05  0.998875
   0.861723  8.247937E-05  0.998878
   0.863727  8.117648E-05  0.998883
   0.865731  8.001184E-05  0.998886
   0.867736  7.900405E-05  0.998890
   0.869739  7.816268E-05  0.998893
   0.871744  7.748920E-05  0.998896
   0.873748  7.697649E-05  0.998899
   0.875751  7.660734E-05  0.998902
   0.877756  7.635950E-05  0.998904
   0.879760  7.620327E-05  0.998907
   0.881764  7.610497E-05  0.998909
   0.883768  7.603002E-05  0.998912
   0.885772  7.594264E-05  0.998915
   0.887776  7.580894E-05  0.998917
   0.889780  7.559889E-05  0.998919
   0.891784  7.528703E-05  0.998922
   0.893788  7.485646E-05  0.998925
   0.895792  7.429461E-05  0.998928
   0.897796  7.360028E-05  0.998931
   0.899800  7.277821E-05  0.998934
   0.901804  7.183884E-05  0.998937
   0.903808  7.080326E-05  0.998940
   0.905812  6.969558E-05  0.998944
   0.907816  6.854423E-05  0.998947
   0.909820  6.738013E-05  0.998951
   0.911824  6.623481E-05  0.998954
   0.913828  6.513739E-05  0.998957
   0.915832  6.411641E-05  0.998960
   0.917836  6.319381E-05  0.998964
   0.919840  6.238699E-05  0.998967
   0.921844  6.170684E-05  0.998969
   0.923848  6.115828E-05  0.998972
   0.925852  6.073744E-05  0.998975
   0.927856  6.043522E-05  0.998977
   0.929860  6.023415E-05  0.998980
   0.931864  6.011603E-05  0.998982
   0.933868  6.005348E-05  0.998984
   0.935872  6.002018E-05  0.998986
   0.937876  5.998940E-05  0.998988
   0.939880  5.993271E-05  0.998990
   0.941884  5.982530E-05  0.998993
   0.943888  5.964566E-05  0.998995
   0.945892  5.937832E-05  0.998997
   0.947896  5.900886E-05  0.999000
   0.949900  5.853569E-05  0.999002
   0.951904  5.795750E-05  0.999005
   0.953908  5.728292E-05  0.999007
   0.955912  5.652301E-05  0.999010
   0.957916  5.569692E-05  0.999013
   0.959920  5.482580E-05  0.999016
   0.961924  5.393232E-05  0.999019
   0.963928  5.304066E-05  0.999022
   0.965932  5.217598E-05  0.999025
   0.967936  5.136211E-05  0.999027
   0.969940  5.061747E-05  0.999030
   0.971944  4.995802E-05  0.999033
   0.973948  4.939493E-05  0.999035
   0.975952  4.893439E-05  0.999038
   0.977956  4.857711E-05  0.999040
   0.979960  4.831715E-05  0.999042
   0.981964  4.814440E-05  0.999044
   0.983968  4.804334E-05  0.999046
   0.985972  4.799729E-05  0.999048
   0.987976  4.798540E-05  0.999050
   0.989980  4.798436E-05  0.999052
   0.991984  4.797288E-05  0.999054
   0.993988  4.793002E-05  0.999056
   0.995992  4.783722E-05  0.999057
   0.997996  4.767908E-05  0.999060
   1.00000  4.744457E-05  0.999062
